File: outputs/results/xrd_merged/xrd_18ml.csv
2Theta,0h,2h,4h,6h,8h,10h,12h,14h,16h,18h,20h,22h,24h
40.0015,650,632,641,659,688,668,678,651,665,678,643,644,628
40.062,641,636,615,666,638,655,604,602,640,659,660,625,708
40.1225,675,615,657,678,623,661,729,639,663,607,676,621,701
40.183,671,658,688,693,588,630,646,637,639,643,633,629,611
40.2435,687,657,662,631,606,637,662,645,656,629,616,656,672
40.304,664,657,664,646,639,693,660,655,660,638,614,637,688
40.3645,696,617,648,647,683,681,646,619,622,640,633,627,658
40.425,667,641,686,637,658,604,613,630,634,663,641,616,651
40.4855,671,644,657,670,631,656,682,652,673,647,700,628,666
40.546,678,676,682,666,640,634,669,605,638,616,675,673,654
40.6065,660,677,607,655,640,687,634,631,655,620,618,662,627
40.6671,699,666,642,626,630,619,648,648,611,594,659,613,686
40.7276,695,696,675,623,640,612,672,658,645,642,644,679,646
40.7881,686,630,611,705,625,624,613,622,656,646,625,646,651
40.8486,662,642,682,678,650,669,643,636,656,638,629,690,634
40.9091,698,666,727,673,677,660,687,606,697,597,641,673,591
40.9696,716,635,625,652,686,590,613,626,676,650,674,633,674
41.0301,693,661,697,651,617,633,668,660,700,641,630,649,632
41.0906,673,695,661,615,629,660,573,628,672,620,641,597,658
41.1511,731,688,737,691,654,644,603,677,619,704,637,692,666
41.2116,744,747,693,676,634,697,636,655,696,629,653,649,620
41.2721,676,697,738,704,678,604,659,639,652,670,609,621,659
41.3326,689,721,711,668,691,676,666,671,684,647,637,672,630
41.3931,731,653,733,655,712,688,629,654,666,669,625,656,621
41.4536,724,680,694,658,671,656,673,646,652,655,623,635,613
41.5141,702,712,706,646,644,696,605,691,639,637,667,688,646
41.5746,750,671,650,724,663,626,683,692,670,608,660,655,651
41.6351,767,736,764,734,640,631,627,618,617,655,667,649,700
41.6956,715,697,703,773,680,662,637,647,681,694,623,650,660
41.7562,749,711,717,762,720,657,674,646,612,677,667,608,617
41.8167,745,737,705,754,687,664,633,653,608,668,672,656,685
41.8772,798,777,756,737,784,731,684,691,690,705,662,655,654
41.9377,774,815,838,831,776,764,710,756,740,750,755,752,754
41.9982,833,814,831,813,840,758,767,754,790,725,752,775,753
42.0587,885,811,857,800,822,786,780,745,757,767,756,762,749
42.1192,797,839,891,809,812,836,773,767,783,793,754,799,762
42.1797,895,893,877,865,828,818,754,814,817,723,790,739,800
42.2402,848,908,892,891,861,746,831,770,783,773,749,790,758
42.3007,929,874,889,841,826,837,784,808,745,799,747,796,733
42.3612,952,954,952,886,807,778,751,763,785,762,752,737,765
42.4217,956,932,923,929,910,835,797,773,800,828,817,807,789
42.4822,965,971,1031,929,870,759,821,746,830,773,779,816,806
42.5427,1049,978,955,951,936,829,805,801,778,810,732,817,789
42.6032,1000,1025,1002,935,863,864,799,800,792,788,793,727,791
42.6637,1046,1128,1103,1032,936,907,785,807,784,802,753,781,763
42.7242,1080,1141,1087,1075,970,789,878,795,763,799,788,805,808
42.7847,1258,1210,1179,1119,960,851,877,791,861,859,858,846,817
42.8453,1360,1332,1322,1267,1003,905,794,839,817,827,817,823,783
42.9058,1505,1465,1497,1343,1173,903,859,868,848,875,879,865,851
42.9663,1665,1656,1676,1603,1249,995,932,964,913,929,963,928,921
43.0268,1936,1919,1906,1808,1430,1170,1078,1083,1036,1078,1059,1090,1071
43.0873,2450,2384,2403,2222,1714,1356,1249,1193,1241,1258,1213,1172,1263
43.1478,3025,3046,2923,2765,2073,1548,1432,1374,1375,1343,1406,1370,1290
43.2083,4139,4121,3961,3669,2745,1932,1657,1689,1575,1631,1646,1577,1595
43.2688,6186,5964,5728,5413,3806,2619,2359,2135,2113,2150,2204,2185,2235
43.3293,9589,9286,9277,8271,5836,3610,3002,2851,2735,2808,2802,2734,2703
43.3898,14686,14388,14638,13733,11476,9244,7885,7995,7884,8385,8065,7780,7686
43.4503,18210,18744,19741,26608,41327,52941,56627,58900,58972,60305,59715,58069,58899
43.5108,17485,17838,18173,18080,16966,16132,16553,16261,16388,15611,15953,16482,16323
43.5713,14184,15108,15267,18136,23622,28871,31396,31943,31930,31928,32085,31687,32300
43.6318,9977,10316,10318,9725,7685,6249,6149,5701,5782,5507,5509,6006,5868
43.6923,6653,6866,6852,6103,4313,2871,2530,2320,2393,2338,2226,2183,2363
43.7528,4684,4664,4616,4190,3018,2095,1841,1719,1686,1764,1770,1779,1823
43.8133,3348,3332,3337,3103,2304,1556,1389,1350,1352,1343,1313,1334,1338
43.8738,2604,2593,2565,2346,1827,1253,1219,1105,1189,1146,1140,1170,1125
43.9344,2177,2166,2048,2024,1509,1105,1026,1008,914,928,990,963,914
43.9949,1804,1854,1829,1632,1280,1004,964,931,901,919,901,894,890
44.0554,1624,1570,1565,1478,1175,998,862,896,853,858,904,898,926
44.1159,1343,1386,1410,1331,1125,952,867,868,891,787,860,862,867
44.1764,1375,1372,1290,1235,1079,891,839,810,780,808,796,783,868
44.2369,1241,1239,1241,1137,1058,907,782,795,813,778,843,782,816
44.2974,1208,1112,1142,1124,994,798,811,822,738,784,800,787,791
44.3579,1108,1075,1131,996,990,787,798,787,789,769,768,774,794
44.4184,1056,1051,1062,1048,972,837,799,750,752,784,816,762,777
44.4789,1056,1045,1022,973,893,784,798,798,800,746,826,701,747
44.5394,992,1003,981,971,839,788,769,747,820,736,815,791,745
44.5999,997,974,940,921,887,749,776,750,776,752,749,710,770
44.6604,961,970,965,905,844,800,741,754,745,742,766,753,756
44.7209,913,891,867,843,813,743,787,760,736,768,703,729,738
44.7814,894,957,931,863,813,737,733,723,768,760,767,787,795
44.8419,885,907,853,855,807,737,736,716,706,803,712,743,710
44.9024,878,866,898,864,811,751,733,789,708,715,769,702,727
44.9629,865,930,852,894,778,725,784,745,715,755,744,706,729
45.0235,823,831,856,827,797,688,744,748,691,662,716,732,761
45.084,869,838,823,821,753,731,709,730,724,769,809,696,752
45.1445,885,876,873,861,717,726,713,762,690,752,768,726,709
45.205,791,793,803,786,742,750,725,740,751,735,721,747,710
45.2655,859,824,823,826,829,718,742,719,750,745,722,710,711
45.326,789,846,846,799,763,717,716,740,677,736,664,720,753
45.3865,822,804,823,827,804,723,747,756,737,724,773,737,734
45.447,830,804,815,783,790,786,793,744,726,757,774,744,820
45.5075,826,800,801,822,748,699,730,752,720,719,765,714,689
45.568,835,820,810,794,765,678,733,718,751,729,764,759,704
45.6285,816,803,789,824,799,734,691,732,705,696,711,704,721
45.689,779,782,725,801,761,690,688,711,738,715,756,736,738
45.7495,788,779,824,746,796,712,721,703,699,730,700,747,705
45.81,789,779,824,814,779,750,753,675,723,691,748,680,683
45.8705,783,806,781,741,757,717,666,697,750,666,688,708,725
45.931,799,789,771,819,702,716,730,739,729,730,689,692,700
45.9915,794,808,752,725,702,692,700,694,745,717,676,673,727
46.052,802,751,786,796,744,692,715,721,695,648,705,720,715
46.1126,760,717,777,787,764,743,742,689,722,702,726,706,667
46.1731,772,760,757,795,732,762,695,718,666,685,675,632,708
46.2336,803,714,751,801,726,693,721,740,652,727,686,733,702
46.2941,761,796,725,739,795,725,686,662,707,730,689,677,692
46.3546,765,793,793,768,754,720,675,757,681,712,700,657,749
46.4151,746,759,758,741,724,696,670,652,721,699,724,769,741
46.4756,797,823,773,708,685,673,670,706,694,690,693,696,709
46.5361,701,761,787,719,732,678,703,666,695,679,682,711,708
46.5966,744,737,724,734,714,691,704,722,637,675,694,703,719
46.6571,797,796,731,764,723,678,716,704,704,690,687,682,711
46.7176,775,796,742,718,730,693,673,691,715,707,708,689,674
46.7781,772,767,771,752,690,682,705,702,671,702,696,712,641
46.8386,763,763,709,739,707,731,751,707,716,679,687,686,715
46.8991,800,772,754,742,742,721,696,736,726,657,676,671,693
46.9596,774,724,772,758,765,699,695,703,729,683,738,690,704
47.0201,753,683,774,792,760,696,675,690,721,702,667,712,675
47.0806,756,756,789,724,687,733,704,713,662,726,661,692,713
47.1411,758,699,708,743,694,757,681,705,710,680,741,723,684
47.2017,718,707,757,713,721,701,708,690,671,624,717,673,605
47.2622,742,770,786,784,657,656,713,709,696,658,666,710,752
47.3227,771,739,721,739,728,673,724,728,700,650,676,661,638
47.3832,746,771,808,731,747,687,710,610,653,676,691,687,638
47.4437,744,792,756,776,707,663,745,652,695,705,615,672,671
47.5042,746,708,771,720,714,702,669,669,679,680,694,659,623
47.5647,735,742,717,759,684,667,728,729,693,699,590,663,650
47.6252,771,761,763,761,728,689,672,673,649,681,680,697,636
47.6857,719,760,734,722,706,694,679,705,687,700,681,648,671
47.7462,691,747,707,733,690,716,666,693,649,666,678,732,685
47.8067,730,753,725,735,664,700,668,700,697,675,697,633,662
47.8672,744,776,736,732,694,728,677,718,675,665,686,666,668
47.9277,781,753,761,733,709,678,682,661,649,650,676,668,693
47.9882,794,749,768,722,731,653,642,682,683,632,696,689,662
48.0487,732,719,756,716,693,680,703,723,717,644,684,705,662
48.1092,748,770,753,713,716,688,687,664,668,703,672,673,684
48.1697,712,759,741,676,720,627,660,725,674,690,708,663,679
48.2302,758,708,778,725,666,603,702,671,640,661,706,642,697
48.2908,785,719,808,704,699,711,683,685,692,688,692,666,673
48.3513,741,779,705,736,694,650,620,680,667,654,620,689,681
48.4118,752,769,754,768,722,662,640,669,653,670,665,684,683
48.4723,756,715,778,757,725,752,706,671,644,719,656,642,679
48.5328,763,771,761,736,679,700,697,659,668,676,648,671,697
48.5933,782,803,802,734,676,682,704,674,659,673,633,671,678
48.6538,759,782,745,751,701,678,691,656,653,646,650,650,706
48.7143,784,776,792,745,747,672,663,671,726,659,728,666,647
48.7748,776,805,706,698,732,729,703,659,689,679,656,661,670
48.8353,759,783,783,788,739,711,698,659,720,674,708,722,718
48.8958,800,801,740,803,682,750,730,718,687,703,736,680,716
48.9563,844,818,803,824,720,705,677,686,657,679,753,714,707
49.0168,769,803,779,762,733,712,676,678,722,763,703,671,686
49.0773,864,794,817,787,746,721,683,692,712,730,711,705,730
49.1378,883,855,840,778,749,740,706,685,628,715,719,682,686
49.1983,843,879,804,799,774,658,702,701,737,716,653,702,700
49.2588,827,834,793,766,773,688,703,728,716,674,661,715,715
49.3193,843,820,897,835,815,724,672,739,684,712,675,739,662
49.3799,838,844,870,862,786,695,710,661,690,708,676,677,733
49.4404,862,857,820,815,722,729,735,675,690,700,673,701,684
49.5009,895,939,877,892,813,721,703,683,700,699,657,717,721
49.5614,932,963,978,832,750,778,672,710,673,681,669,681,681
49.6219,904,908,940,895,787,717,713,698,719,704,720,707,679
49.6824,975,953,978,937,828,764,720,698,693,716,697,707,756
49.7429,1015,1012,1037,938,861,734,667,705,712,688,719,711,676
49.8034,1079,1040,1091,1018,909,721,746,722,722,683,721,730,715
49.8639,1196,1165,1113,1001,876,728,717,730,698,735,671,738,703
49.9244,1228,1186,1127,1081,922,804,708,751,727,704,739,731,710
49.9849,1350,1244,1265,1204,970,743,739,749,722,712,696,688,673
50.0454,1458,1430,1353,1346,1058,804,754,749,759,741,702,742,722
50.1059,1698,1620,1582,1442,1128,952,786,763,736,790,771,760,774
50.1664,1887,1889,1878,1565,1251,941,849,895,805,817,823,820,807
50.2269,2151,2139,2057,1911,1370,1008,881,826,833,841,876,877,873
50.2874,2610,2431,2397,2213,1569,1137,1021,918,983,995,894,855,927
50.3479,2975,2885,2953,2565,1830,1291,1115,1105,1044,1045,1079,1029,1047
50.4084,3490,3541,3367,3027,2224,1505,1280,1250,1227,1160,1250,1211,1224
50.469,3929,3933,3933,3673,2808,2001,1741,1637,1686,1701,1638,1692,1639
50.5295,4321,4441,4440,4747,5060,4920,4594,4728,4660,4814,4759,4543,4699
50.59,4414,4537,4872,5856,8289,10560,11534,11654,11590,11872,11976,11717,11952
50.6505,4243,4367,4462,4503,4437,4618,4865,4723,4819,4501,4766,4903,4831
50.711,3901,4089,4101,4689,5537,6158,6327,6489,6429,6651,6443,6600,6427
50.7715,3550,3594,3490,3378,3096,3024,3197,3164,3208,3005,3050,3143,3229
50.832,2956,3070,3054,2834,2042,1534,1414,1381,1299,1355,1358,1343,1428
50.8925,2503,2667,2564,2287,1697,1275,1103,1023,1090,1042,1012,1058,1013
50.953,2168,2208,2114,1899,1489,1012,910,928,920,910,834,926,887
51.0135,1866,1933,1855,1652,1185,940,819,892,854,799,881,806,824
51.074,1557,1591,1484,1485,1111,894,818,811,774,732,762,774,822
51.1345,1349,1398,1380,1265,1057,823,857,778,777,738,823,721,743
51.195,1313,1249,1295,1224,894,728,766,786,770,746,738,703,677
51.2555,1206,1168,1138,1086,887,777,695,753,661,727,697,653,720
51.316,1094,1026,981,997,896,741,718,694,709,689,734,699,689
51.3765,1022,1008,1035,944,800,679,687,678,741,716,704,713,709
51.437,996,958,958,903,812,806,652,667,664,731,626,692,710
51.4975,918,905,857,851,808,646,704,700,739,711,661,692,693
51.5581,866,839,875,827,761,715,687,657,734,670,671,696,685
51.6186,847,824,848,807,740,687,690,683,691,669,674,677,678
51.6791,873,804,801,832,761,685,733,660,677,664,669,669,717
51.7396,843,785,790,751,737,642,714,706,670,614,657,628,718
51.8001,826,773,778,738,699,701,646,670,675,681,649,673,698
51.8606,823,750,766,784,663,685,662,689,695,656,638,621,656
51.9211,758,763,775,751,701,649,679,690,670,670,654,675,710
51.9816,767,756,695,750,728,707,699,663,729,633,649,678,675
52.0421,752,758,765,726,678,690,663,673,660,691,662,640,598
52.1026,752,714,734,745,699,673,705,670,635,658,715,669,683
52.1631,728,811,678,726,709,665,690,672,665,677,671,644,647
52.2236,746,769,675,717,703,679,693,685,646,657,644,655,673
52.2841,712,687,740,747,668,634,654,664,622,672,644,699,648
52.3446,695,702,710,648,725,687,683,655,653,696,654,664,679
52.4051,719,691,720,690,667,655,647,634,672,681,673,671,648
52.4656,689,731,714,723,674,678,645,671,616,687,705,626,709
52.5261,716,694,677,701,689,614,628,736,680,666,611,663,708
52.5866,719,673,648,709,614,664,624,630,653,657,634,635,634
52.6472,656,675,687,690,665,672,666,645,635,720,669,658,656
52.7077,742,666,684,689,659,656,688,633,646,634,668,645,638
52.7682,684,726,682,659,697,692,661,628,683,667,656,687,650
52.8287,685,658,705,695,689,631,625,620,652,664,657,605,653
52.8892,690,718,685,692,633,637,626,667,630,654,659,652,668
52.9497,724,694,715,739,655,676,686,629,655,673,677,658,646
53.0102,728,718,679,689,611,664,649,643,643,655,665,651,586
53.0707,646,697,683,668,657,632,619,646,648,626,646,616,674
53.1312,710,641,689,701,652,682,646,676,659,620,678,672,661
53.1917,679,689,644,746,678,668,664,640,713,652,639,644,652
53.2522,672,639,666,654,706,665,660,638,646,663,651,636,636
53.3127,729,641,664,704,645,602,663,671,626,689,638,621,618
53.3732,676,681,678,698,701,656,659,658,680,680,608,615,642
53.4337,655,697,690,683,685,606,665,635,645,634,651,669,625
53.4942,717,650,684,711,683,740,621,659,651,670,642,620,631
53.5547,663,657,675,706,626,574,619,693,671,664,637,620,675
53.6152,668,673,655,668,665,662,697,675,629,645,664,661,658
53.6757,640,650,671,680,617,622,613,653,698,644,671,661,683
53.7363,660,636,692,633,673,664,670,587,605,631,685,659,641
53.7968,693,678,688,638,672,636,674,651,697,672,669,621,621
53.8573,659,681,700,665,626,682,617,641,625,613,661,638,646
53.9178,667,635,650,714,657,589,649,655,655,671,649,625,661
53.9783,605,645,656,633,661,664,681,637,657,665,679,656,648
54.0388,658,635,662,681,675,680,627,662,641,687,647,630,618
54.0993,685,659,668,658,648,635,618,677,642,683,628,620,670
54.1598,721,656,672,629,681,647,627,644,643,632,647,669,634
54.2203,677,653,670,670,637,599,636,631,651,623,689,643,651
54.2808,645,650,701,734,673,677,603,626,684,593,693,619,660
54.3413,697,630,668,682,664,683,698,629,667,626,649,622,643
54.4018,665,657,687,627,652,630,614,666,689,666,636,611,601
54.4623,656,636,673,618,654,619,621,647,722,658,633,642,608
54.5228,663,642,683,680,603,622,681,702,640,670,652,611,631
54.5833,672,694,609,598,675,649,650,597,681,618,662,643,679
54.6438,640,651,628,654,690,638,658,653,645,607,641,633,610
54.7043,650,647,600,675,692,662,636,668,636,704,605,632,667
54.7648,676,618,694,665,623,604,642,650,645,628,634,625,626
54.8254,612,656,679,640,664,690,606,644,634,611,659,636,620
54.8859,630,628,630,652,623,665,639,647,669,613,625,627,602
54.9464,682,654,660,648,647,607,614,636,584,620,645,660,612
55.0069,698,674,689,688,679,615,693,661,626,594,658,641,650
55.0674,639,628,705,646,657,653,628,666,581,653,622,634,663
55.1279,651,649,663,645,640,600,650,618,632,655,685,616,629
55.1884,651,657,682,616,649,656,673,652,626,594,616,606,614
55.2489,640,627,642,671,693,628,634,663,645,708,635,628,674
55.3094,675,648,625,644,623,665,657,676,649,621,625,619,642
55.3699,639,636,673,640,620,620,650,669,626,699,658,651,646
55.4304,649,669,601,633,641,685,652,638,621,621,629,643,621
55.4909,637,628,655,681,626,649,622,642,644,628,616,658,653
55.5514,685,655,671,681,666,600,672,644,645,643,668,630,639
55.6119,665,675,677,650,668,605,638,705,612,621,645,630,638
55.6724,617,658,630,656,647,595,693,609,632,667,636,657,632
55.7329,665,593,663,672,638,651,634,628,616,623,629,639,635
55.7934,664,658,635,675,626,669,639,655,594,639,619,641,643
55.854,670,682,626,676,641,621,665,619,613,607,643,650,631
55.9145,618,606,654,661,651,670,616,652,637,660,630,637,655
55.975,639,638,612,675,619,583,649,678,647,665,653,586,665
56.0355,603,657,638,660,654,630,632,627,635,629,629,644,663
56.096,647,620,630,647,615,601,638,648,680,625,616,639,616
56.1565,622,683,623,680,618,597,666,662,643,621,656,660,597
56.217,644,686,650,589,611,638,630,600,583,662,619,668,579
56.2775,643,690,673,691,612,623,582,624,643,666,645,673,575
56.338,650,655,653,615,647,646,655,661,651,653,601,605,674
56.3985,637,657,645,684,667,591,633,595,628,641,636,583,607
56.459,643,649,611,617,631,609,606,630,606,617,600,597,657
56.5195,619,616,625,701,651,631,661,632,646,629,634,653,614
56.58,645,588,661,618,661,609,659,609,607,684,673,611,628
56.6405,679,681,620,632,642,659,607,630,622,605,646,597,645
56.701,587,680,618,696,617,676,631,629,648,605,649,654,635
56.7615,643,685,641,694,648,651,623,649,622,600,658,645,625
56.822,656,650,605,619,612,617,659,609,642,601,653,637,680
56.8825,617,633,605,669,635,630,652,623,602,611,608,635,632
56.9431,637,613,674,645,678,612,576,633,607,623,623,631,605
57.0036,651,607,645,620,624,591,616,632,592,619,668,573,621
57.0641,616,657,647,602,667,643,601,619,622,646,588,602,664
57.1246,641,685,645,677,642,629,614,635,580,597,641,611,620
57.1851,659,630,629,638,658,626,624,610,611,637,621,639,591
57.2456,658,672,640,625,625,617,663,630,655,614,640,627,617
57.3061,612,655,615,630,652,651,619,621,617,638,597,657,648
57.3666,631,625,623,618,635,637,606,658,642,615,640,583,635
57.4271,651,669,629,676,642,617,592,613,674,659,679,618,592
57.4876,637,675,658,637,632,656,704,645,614,612,670,607,646
57.5481,659,582,632,601,625,611,602,572,658,594,637,647,641
57.6086,694,624,636,622,641,632,667,686,678,641,654,626,637
57.6691,598,574,613,635,600,601,630,659,631,642,598,661,672
57.7296,678,622,668,654,607,610,645,626,656,625,638,648,582
57.7901,620,656,596,626,643,647,623,658,594,647,642,598,620
57.8506,671,642,679,611,652,634,592,640,603,644,679,645,632
57.9111,664,687,632,615,629,635,660,593,640,612,607,607,612
57.9716,614,677,630,633,669,629,598,657,625,638,657,658,633
58.0322,659,627,651,596,602,688,627,647,632,635,617,614,628
58.0927,635,671,637,622,628,603,635,642,632,614,622,565,606
58.1532,664,690,649,664,661,624,633,625,616,640,612,637,652
58.2137,634,672,667,656,642,610,585,638,639,617,612,609,632
58.2742,622,627,601,590,650,636,602,602,601,595,621,597,611
58.3347,645,588,617,644,603,610,618,668,655,649,623,630,623
58.3952,615,608,665,633,631,651,658,612,632,635,646,625,636
58.4557,658,632,607,643,636,607,624,606,605,655,604,616,651
58.5162,692,604,650,642,656,640,627,594,616,668,663,621,575
58.5767,636,614,644,643,607,631,635,626,609,563,641,625,641
58.6372,651,645,638,611,588,589,607,641,609,642,610,633,598
58.6977,685,644,616,638,676,598,630,663,603,591,653,570,619
58.7582,628,623,624,611,593,649,639,651,624,612,598,602,594
58.8187,652,623,632,629,616,581,633,660,590,609,640,609,629
58.8792,636,616,632,637,607,620,640,610,583,628,655,661,618
58.9397,630,606,619,646,623,610,680,656,596,652,605,628,579
59.0002,656,618,659,632,625,613,614,603,626,623,618,619,618
59.0607,591,632,635,689,654,654,620,618,614,615,639,588,632
59.1213,608,656,594,622,620,643,656,631,637,658,640,615,618
59.1818,647,608,635,628,606,660,616,592,635,586,599,649,617
59.2423,634,629,644,625,640,648,627,598,630,601,600,630,620
59.3028,665,633,624,628,622,621,616,602,606,607,628,627,635
59.3633,624,595,660,630,670,655,658,625,581,571,643,641,598
59.4238,626,629,636,622,611,614,616,637,640,654,599,642,609
59.4843,618,633,652,639,605,601,625,601,649,618,598,677,652
59.5448,662,624,637,665,644,606,640,654,611,614,650,623,642
59.6053,626,631,594,609,608,632,613,608,634,601,632,641,610
59.6658,672,617,649,605,626,642,604,568,619,639,625,602,623
59.7263,658,635,648,629,622,653,643,627,629,607,618,611,620
59.7868,628,625,634,597,614,637,619,600,650,612,595,616,636
59.8473,607,631,619,641,666,632,614,622,636,621,624,644,586
59.9078,572,648,657,648,609,603,648,638,561,584,642,595,650
59.9683,629,647,621,639,572,627,646,650,602,625,586,636,666
60.0288,582,657,618,635,609,605,632,639,617,619,664,576,635
60.0893,646,596,618,608,637,623,682,608,606,577,608,642,636
60.1498,615,592,628,621,601,620,650,617,665,657,600,619,644
60.2104,608,586,582,638,654,685,662,619,672,631,636,619,637
60.2709,625,625,647,633,641,598,635,629,628,607,685,660,627
60.3314,648,649,611,653,593,637,625,656,684,579,582,639,639
60.3919,610,626,619,623,605,661,653,599,621,628,617,596,684
60.4524,623,619,620,646,669,625,605,624,631,630,617,621,603
60.5129,618,692,615,614,643,630,664,623,621,612,641,623,618
60.5734,632,633,650,632,628,627,593,667,640,663,604,617,640
60.6339,632,575,609,665,645,603,678,626,622,618,630,619,612
60.6944,650,662,585,656,620,638,659,573,635,639,611,613,692
60.7549,592,608,620,632,588,695,653,649,568,620,628,630,573
60.8154,600,676,624,641,628,591,615,663,611,608,633,566,581
60.8759,652,575,594,641,652,646,631,643,619,606,662,608,599
60.9364,607,658,601,610,584,652,616,577,641,615,605,619,601
60.9969,610,621,601,633,605,648,683,598,595,622,611,603,626
61.0574,651,598,602,612,611,639,613,681,573,611,637,639,639
61.1179,595,583,629,652,640,607,652,582,645,622,559,593,618
61.1784,643,618,643,681,648,635,637,635,633,580,623,605,564
61.2389,628,608,637,599,625,629,662,601,647,619,627,629,609
61.2995,646,594,670,623,605,612,569,647,609,606,608,616,603
61.36,606,602,634,635,626,615,652,649,635,651,600,621,601
61.4205,619,641,570,608,635,611,629,621,619,632,604,598,668
61.481,638,662,634,631,648,634,613,649,624,614,640,587,636
61.5415,670,619,640,670,628,661,608,625,590,677,594,595,591
61.602,624,601,620,610,618,666,656,608,619,596,624,595,638
61.6625,609,600,612,628,608,608,577,601,611,658,571,587,604
61.723,616,644,625,636,606,622,650,617,637,623,619,657,618
61.7835,628,638,618,597,588,623,636,595,633,637,637,562,649
61.844,617,620,633,587,637,628,584,604,593,606,621,600,612
61.9045,641,572,665,650,620,590,614,610,609,627,617,587,622
61.965,614,657,610,602,670,609,633,622,624,641,655,645,629
62.0255,661,655,644,601,586,591,645,657,599,605,604,623,575
62.086,649,638,597,590,636,614,612,577,589,648,628,616,592
62.1465,650,630,597,628,650,668,591,630,624,622,672,555,658
62.207,622,596,617,633,596,654,584,618,611,630,618,607,646
62.2675,649,635,652,623,623,632,649,628,611,597,645,575,622
62.328,606,595,579,611,651,634,620,613,619,631,618,595,592
62.3886,634,647,585,601,635,588,655,638,617,574,624,621,563
62.4491,694,588,636,611,604,641,620,590,614,614,574,593,619
62.5096,659,631,618,596,588,634,548,632,599,658,611,621,596
62.5701,617,616,598,626,646,639,621,604,628,695,626,650,604
62.6306,580,596,644,643,583,585,644,644,610,628,626,603,622
62.6911,595,636,636,625,634,631,595,588,625,582,573,641,624
62.7516,626,623,637,667,582,625,574,651,638,620,627,648,654
62.8121,648,661,634,625,623,596,630,625,653,642,638,608,621
62.8726,612,585,597,623,620,602,618,633,627,603,682,608,600
62.9331,575,611,637,629,625,633,620,600,597,611,650,639,637
62.9936,633,627,635,594,672,665,614,615,634,605,619,654,650
63.0541,641,622,645,643,605,597,619,634,574,615,640,617,600
63.1146,632,602,630,676,605,641,556,618,613,600,602,611,605
63.1751,608,684,678,646,664,614,648,636,641,605,606,661,593
63.2356,629,601,629,623,630,620,623,606,640,649,605,556,621
63.2961,632,659,608,645,623,618,636,616,616,660,614,630,614
63.3566,610,655,608,624,623,602,592,659,676,584,622,613,599
63.4171,598,582,621,662,596,614,665,655,639,626,585,618,618
63.4777,676,622,656,589,609,590,637,614,611,630,636,587,646
63.5382,633,615,610,651,611,617,627,638,603,618,569,647,607
63.5987,614,622,685,639,626,636,623,586,581,608,585,618,606
63.6592,647,608,607,642,646,602,613,618,633,615,627,633,612
63.7197,665,633,613,617,618,560,607,658,616,613,633,597,598
63.7802,612,598,626,606,622,602,619,614,666,620,630,569,600
63.8407,613,623,581,603,588,601,614,649,628,579,641,614,634
63.9012,594,599,632,587,581,611,615,646,594,626,627,621,617
63.9617,609,599,585,623,652,622,611,639,651,624,624,589,656
64.0222,600,637,603,655,592,569,635,582,637,610,601,599,557
64.0827,564,631,618,572,599,636,635,581,609,605,571,625,604
64.1432,612,581,634,578,604,594,686,606,622,600,585,591,591
64.2037,622,630,607,593,644,572,637,635,632,612,582,623,642
64.2642,638,636,597,622,577,579,607,586,597,631,613,646,588
64.3247,615,595,644,618,613,619,620,620,639,575,608,635,579
64.3852,618,579,615,626,657,622,647,617,609,573,598,627,604
64.4457,619,596,643,621,665,633,642,628,631,621,654,600,648
64.5062,617,595,594,602,654,591,599,656,565,611,600,593,598
64.5668,616,621,586,660,633,621,627,571,644,601,623,585,627
64.6273,579,587,594,626,615,584,639,602,635,626,588,625,610
64.6878,581,587,629,639,637,557,607,599,605,640,615,659,660
64.7483,629,655,628,622,652,595,616,596,645,623,608,630,612
64.8088,605,663,656,606,648,634,623,619,608,621,644,585,659
64.8693,663,590,633,611,654,640,631,610,587,602,607,614,630
64.9298,617,605,582,648,626,667,592,611,553,598,610,653,594
64.9903,649,610,664,597,611,611,641,645,660,566,624,622,595
65.0508,597,618,635,563,588,604,599,607,664,617,588,625,695
65.1113,581,612,584,624,568,653,579,617,597,596,618,606,619
65.1718,636,671,607,595,605,617,632,621,580,632,589,614,649
65.2323,584,612,576,597,617,604,619,616,627,622,628,590,641
65.2928,616,630,629,577,606,595,637,645,639,613,625,628,589
65.3533,616,616,633,651,646,628,617,614,633,613,633,610,605
65.4138,631,602,638,625,633,655,639,600,595,590,628,602,679
65.4743,571,644,598,610,624,628,621,618,647,617,634,591,559
65.5348,636,604,626,602,608,626,601,641,590,632,606,566,595
65.5953,645,560,646,615,625,598,651,633,614,640,648,663,597
65.6559,612,647,645,598,613,575,613,641,592,586,615,612,626
65.7164,604,593,636,629,613,628,599,595,609,638,620,636,645
65.7769,606,631,575,600,619,641,587,654,673,641,621,617,661
65.8374,621,614,622,617,593,608,584,657,599,640,623,623,597
65.8979,615,612,577,600,617,637,607,648,608,644,603,614,621
65.9584,611,624,635,609,640,663,620,616,621,647,615,602,616
66.0189,609,611,584,637,622,598,596,637,594,625,614,605,644
66.0794,595,606,646,639,659,636,642,572,643,632,656,646,596
66.1399,599,643,620,640,638,639,605,657,643,633,714,628,655
66.2004,641,664,613,584,658,620,597,639,608,669,601,572,697
66.2609,605,579,577,615,635,609,625,611,597,635,668,579,639
66.3214,645,612,657,595,651,650,643,574,619,643,559,636,581
66.3819,625,652,616,637,627,614,654,611,646,617,570,619,585
66.4424,633,616,653,628,617,585,580,599,609,641,625,595,630
66.5029,589,604,587,613,612,608,603,645,626,615,636,609,616
66.5634,561,597,633,602,590,627,649,570,603,622,660,660,623
66.6239,599,653,619,608,600,606,595,634,587,585,580,578,629
66.6844,608,594,569,634,603,673,599,641,615,650,630,615,637
66.745,647,612,633,650,636,590,602,608,609,624,665,571,609
66.8055,622,564,644,589,622,578,611,626,577,623,597,613,642
66.866,634,583,656,617,605,606,566,599,659,626,617,604,633
66.9265,638,664,609,629,583,590,616,626,597,583,558,621,639
66.987,612,604,587,585,602,592,627,641,635,583,592,642,616
67.0475,577,605,622,601,639,640,604,601,600,636,607,606,601
67.108,643,585,577,631,577,598,584,621,634,571,634,635,598
67.1685,639,598,630,603,599,610,625,642,579,651,589,592,611
67.229,591,650,633,596,615,600,611,621,585,595,577,652,578
67.2895,611,649,620,622,590,626,648,628,614,635,632,604,593
67.35,607,610,679,640,655,631,640,565,595,626,597,611,571
67.4105,582,604,624,586,658,626,630,610,622,587,638,621,652
67.471,613,584,624,615,628,571,615,625,592,596,563,586,629
67.5315,671,615,594,613,629,616,583,629,588,641,615,592,623
67.592,604,625,632,596,630,627,626,600,579,617,613,600,640
67.6525,581,633,626,622,602,645,580,617,588,596,594,628,599
67.713,576,602,649,643,628,595,550,594,593,640,649,605,602
67.7735,604,627,607,635,644,616,609,613,597,615,640,630,651
67.8341,618,598,618,640,630,598,601,619,645,630,638,629,570
67.8946,613,624,668,599,592,607,659,610,631,613,572,602,628
67.9551,602,614,619,627,639,599,588,618,650,576,602,604,629
68.0156,630,591,611,652,608,568,626,623,612,577,594,625,607
68.0761,622,640,640,621,607,616,624,605,586,628,626,594,601
68.1366,651,621,604,598,595,599,627,603,630,646,592,621,616
68.1971,594,639,602,586,589,593,595,612,581,624,626,595,580
68.2576,625,581,568,630,603,580,582,640,589,633,559,649,713
68.3181,623,630,600,602,600,590,665,610,632,608,618,611,628
68.3786,618,597,584,606,624,621,644,626,610,627,602,586,580
68.4391,644,620,616,576,611,612,592,634,583,622,637,600,593
68.4996,618,606,591,620,570,605,588,622,618,579,597,629,609
68.5601,590,605,623,629,604,588,604,636,654,603,593,636,611
68.6206,645,598,633,618,634,631,625,620,621,610,611,617,609
68.6811,621,614,630,615,637,615,591,652,584,598,594,683,662
68.7416,592,599,617,630,590,608,658,613,610,577,633,616,600
68.8021,617,578,614,648,570,595,618,649,617,616,580,584,584
68.8626,615,573,620,673,602,639,633,631,645,640,624,624,626
68.9232,639,638,606,594,592,608,585,635,604,594,591,579,597
68.9837,589,607,641,625,606,592,606,614,607,576,584,596,652
69.0442,595,600,633,621,600,639,580,622,636,606,626,604,591
69.1047,630,599,605,612,583,624,594,567,644,604,653,606,639
69.1652,608,620,624,629,617,591,607,628,608,615,589,631,664
69.2257,640,563,597,600,572,580,632,614,602,636,623,640,586
69.2862,608,640,662,632,583,604,619,645,589,635,620,577,645
69.3467,631,643,611,591,626,633,627,572,669,601,616,658,641
69.4072,648,622,601,590,599,613,618,650,632,660,557,587,598
69.4677,644,644,656,635,610,630,579,622,672,582,623,633,635
69.5282,605,592,660,628,608,591,612,599,615,582,625,591,602
69.5887,619,599,574,650,641,584,598,617,626,622,647,610,588
69.6492,630,624,629,628,622,633,660,626,608,623,631,614,609
69.7097,600,595,632,589,620,576,603,625,586,590,615,595,606
69.7702,623,596,631,616,669,590,596,652,638,625,594,611,657
69.8307,580,606,607,590,608,600,574,673,584,577,656,618,658
69.8912,627,582,639,626,583,629,620,597,592,581,608,619,594
69.9517,577,610,612,595,600,617,627,604,610,587,615,642,619
70.0123,604,571,593,588,572,664,571,581,625,600,613,577,593
70.0728,625,599,636,605,628,628,590,598,556,609,583,601,655
70.1333,634,633,612,643,591,617,623,568,615,600,605,632,643
70.1938,629,608,614,610,618,609,594,584,594,625,628,621,597
70.2543,605,591,573,637,651,612,606,613,641,619,627,615,599
70.3148,613,609,612,638,593,638,609,573,622,601,656,590,620
70.3753,632,613,640,633,590,602,556,621,588,575,581,601,579
70.4358,629,652,652,603,579,571,608,611,651,612,589,598,673
70.4963,592,587,633,603,644,606,587,659,586,589,588,574,563
70.5568,590,598,624,620,584,610,642,629,637,599,632,584,592
70.6173,643,660,601,600,582,615,604,604,553,603,638,616,621
70.6778,615,619,625,617,593,610,612,605,633,605,649,641,605
70.7383,574,621,614,653,634,604,610,643,639,608,568,623,626
70.7988,636,578,608,619,588,618,595,714,627,664,623,609,665
70.8593,603,623,645,605,620,643,576,642,587,647,571,587,572
70.9198,636,611,631,579,572,598,611,585,615,629,625,620,607
70.9803,641,538,615,642,640,626,602,617,623,653,641,613,614
71.0409,605,562,640,589,624,624,612,620,597,582,614,612,648
71.1014,598,619,618,665,636,601,629,637,622,627,594,601,644
71.1619,644,596,594,539,622,602,593,604,601,638,635,621,624
71.2224,657,629,612,661,648,621,626,607,628,615,643,610,622
71.2829,577,572,624,634,625,627,622,634,631,651,647,637,629
71.3434,612,640,593,615,586,624,596,621,626,616,621,658,620
71.4039,600,584,694,628,645,618,608,679,630,608,672,592,656
71.4644,635,620,587,628,634,628,635,650,654,616,622,612,642
71.5249,616,568,557,639,624,635,673,620,651,658,635,623,646
71.5854,619,656,623,640,631,636,638,612,678,632,622,622,662
71.6459,611,637,625,624,641,607,649,657,610,648,660,659,583
71.7064,622,580,624,621,599,618,592,645,631,667,630,622,603
71.7669,624,621,613,668,686,628,657,620,660,686,632,629,628
71.8274,590,644,596,634,624,667,624,653,657,640,665,595,584
71.8879,640,659,659,613,635,630,664,638,652,672,655,656,629
71.9484,628,622,579,609,597,610,625,666,612,671,653,649,590
72.0089,622,605,680,610,626,618,636,650,616,635,620,622,648
72.0694,650,645,603,643,599,615,637,613,593,630,655,629,604
72.13,590,634,612,656,599,616,614,592,590,663,576,611,596
72.1905,619,637,617,621,656,605,649,650,642,640,625,651,638
72.251,616,617,632,572,643,614,594,621,659,678,656,686,649
72.3115,603,665,618,612,604,593,640,645,650,639,637,649,630
72.372,596,666,583,627,610,631,646,631,638,678,626,634,591
72.4325,634,617,658,650,616,641,622,646,628,636,628,617,620
72.493,617,617,607,628,646,600,654,610,640,654,633,622,592
72.5535,624,646,652,660,621,639,589,641,685,646,643,665,630
72.614,611,636,605,594,653,652,630,673,655,602,645,623,595
72.6745,646,590,631,612,607,654,678,625,638,674,626,612,616
72.735,652,616,611,647,651,637,596,644,631,659,630,583,643
72.7955,624,590,620,645,596,614,635,587,650,624,657,683,631
72.856,614,637,636,628,614,598,653,633,619,630,638,611,617
72.9165,606,622,643,615,606,659,676,613,600,647,598,662,653
72.977,624,662,613,676,641,641,629,641,614,669,651,649,665
73.0375,633,685,641,714,617,666,624,645,637,629,650,653,678
73.098,663,631,609,649,640,678,627,730,634,673,630,618,686
73.1585,630,639,664,662,652,686,627,669,641,610,628,635,688
73.2191,690,663,656,671,657,614,640,668,636,604,660,624,623
73.2796,661,656,664,651,660,686,600,645,633,668,659,628,640
73.3401,664,653,647,638,715,640,629,642,637,639,640,655,661
73.4006,730,684,632,671,660,666,645,652,649,672,628,652,633
73.4611,730,660,684,677,677,668,693,669,654,683,649,622,629
73.5216,719,708,682,656,659,665,656,655,642,642,733,674,710
73.5821,768,714,675,717,693,660,638,704,655,673,645,728,679
73.6426,795,709,758,717,694,693,659,653,685,674,649,650,693
73.7031,787,772,797,774,721,705,685,700,694,717,696,699,675
73.7636,804,775,805,790,790,751,743,751,732,694,699,714,703
73.8241,880,812,794,815,883,866,806,813,821,783,763,779,775
73.8846,928,868,935,938,914,947,918,846,896,855,822,802,872
73.9451,1027,1015,991,944,883,861,855,857,862,856,896,897,862
74.0056,1064,1122,1038,1060,964,925,920,953,922,939,934,863,953
74.0661,1217,1200,1162,1192,1171,1078,1128,1063,1109,1079,1034,1082,1106
74.1266,1284,1290,1356,1444,1515,1615,1515,1617,1599,1678,1549,1568,1661
74.1871,1416,1409,1488,2296,3734,4269,4065,4405,4408,4323,4325,4211,4197
74.2476,1405,1457,1716,3904,8706,11412,12312,12623,12457,12680,12796,12348,12925
74.3082,1434,1418,1505,2000,3115,4020,4375,4377,4111,4425,4395,4384,4550
74.3687,1327,1333,1324,1582,1976,2102,2215,2142,2114,2229,2208,2179,2207
74.4292,1294,1256,1463,2176,3806,4611,4553,4884,4632,4753,4851,4624,4797
74.4897,1189,1199,1271,2002,3612,4627,5347,5188,5131,5262,5326,5396,5443
74.5502,1111,1100,1166,1255,1436,1650,1713,1678,1696,1641,1695,1732,1746
74.6107,1027,987,1015,1024,959,1008,1003,1048,1021,1017,983,1063,1037
74.6712,955,976,962,969,883,889,871,886,888,863,852,931,905
74.7317,862,873,884,867,857,841,698,774,809,781,802,774,822
74.7922,848,841,816,777,820,771,764,698,696,774,768,787,722
74.8527,752,790,778,759,756,715,681,695,702,715,730,693,742
74.9132,760,763,789,730,704,742,689,715,662,676,716,696,705
74.9737,735,739,747,706,696,697,642,678,692,691,675,664,696
75.0342,686,697,743,691,671,713,671,685,641,711,725,651,720
75.0947,716,704,682,713,710,662,725,652,638,718,699,619,654
75.1552,628,703,676,717,666,620,724,672,591,639,675,690,672
75.2157,646,659,673,639,700,643,631,638,652,605,649,664,662
75.2762,678,688,627,665,666,609,680,679,638,653,662,622,640
75.3367,640,665,675,701,614,644,633,646,667,626,677,634,655
75.3973,666,615,606,616,617,660,635,651,665,639,644,669,632
75.4578,620,667,652,627,660,647,652,637,672,615,661,626,686
75.5183,657,646,648,647,614,663,626,639,638,638,651,582,674
75.5788,605,658,606,604,639,615,620,683,670,615,678,640,660
75.6393,631,664,606,641,630,668,632,669,674,668,615,702,618
75.6998,663,642,664,647,658,630,675,660,671,627,637,639,629
75.7603,683,633,682,627,601,620,653,677,612,642,656,634,651
75.8208,636,634,676,640,615,605,635,671,617,631,662,616,582
75.8813,605,604,666,690,603,621,616,668,621,597,619,657,637
75.9418,629,637,654,606,649,622,659,636,651,617,612,705,624
76.0023,639,610,613,647,645,655,653,615,610,660,618,628,612
76.0628,626,577,570,667,630,605,647,652,648,631,646,636,642
76.1233,639,629,604,615,641,622,649,633,631,600,624,622,632
76.1838,637,605,628,645,649,623,652,648,607,643,588,654,626
76.2443,612,638,631,625,690,649,669,621,624,619,613,646,630
76.3048,617,624,633,670,640,582,626,574,597,631,645,638,599
76.3653,616,667,680,641,642,652,639,630,658,612,607,603,649
76.4258,624,606,612,584,645,620,613,615,625,602,669,637,649
76.4864,561,649,597,603,594,676,610,612,617,657,630,653,629
76.5469,616,648,632,600,623,662,597,590,652,600,628,620,649
76.6074,597,594,630,594,639,631,593,635,637,633,605,637,645
76.6679,644,601,566,588,661,601,605,633,649,599,637,634,590
76.7284,620,590,652,635,643,630,616,662,667,640,633,626,615
76.7889,631,598,639,614,611,598,657,607,655,658,635,626,674
76.8494,593,611,587,597,628,617,651,653,654,599,650,618,646
76.9099,618,623,623,586,614,627,643,660,627,668,637,623,630
76.9704,634,604,616,603,596,640,595,604,655,618,616,617,618
77.0309,615,614,627,632,593,585,633,649,628,606,631,638,631
77.0914,617,615,585,631,616,633,636,610,658,602,633,644,600
77.1519,650,568,618,595,593,630,600,593,639,655,594,648,657
77.2124,596,619,614,667,590,626,621,627,660,592,615,622,639
77.2729,600,627,632,652,629,618,645,596,630,589,631,616,634
77.3334,621,624,600,583,644,604,659,639,608,669,599,593,624
77.3939,612,609,570,648,594,601,670,600,632,620,638,648,638
77.4544,621,615,683,610,647,657,650,617,623,572,651,623,621
77.5149,637,585,596,615,623,677,645,619,634,677,664,606,636
77.5755,610,592,624,627,641,621,612,612,648,624,649,575,611
77.636,606,594,638,628,624,606,602,619,653,631,651,612,609
77.6965,588,603,673,624,617,653,648,629,647,607,611,610,683
77.757,601,604,643,636,635,623,592,653,600,629,603,633,634
77.8175,598,642,623,610,609,597,624,632,581,631,617,607,631
77.878,644,614,589,652,613,636,626,605,628,634,631,640,591
77.9385,630,648,639,612,584,585,629,631,607,574,626,646,608
77.999,657,604,597,612,623,581,585,606,623,594,655,618,595