File: outputs/results/xrd_merged/xrd_4.5ml.csv
2Theta,0h,2h,4h,6h,8h,10h,12h,14h,16h,18h,20h,22h,24h
40.0015,673,637,647,628,654,651,630,660,602,647,636,615,638
40.062,657,616,628,643,626,644,629,583,607,620,600,627,618
40.1225,647,641,647,638,628,649,654,622,563,673,643,658,614
40.183,649,616,678,664,688,579,639,590,631,637,645,647,622
40.2435,635,642,629,640,635,629,640,609,623,652,647,619,659
40.304,663,620,658,613,594,606,623,677,637,620,674,609,605
40.3645,626,658,613,619,649,608,565,614,639,597,587,606,576
40.425,658,616,625,664,625,647,649,604,617,646,594,619,627
40.4855,614,664,675,622,645,619,689,625,618,600,609,647,628
40.546,640,650,630,647,637,615,594,611,633,620,642,609,632
40.6065,624,635,709,652,655,617,646,633,641,616,616,603,581
40.6671,648,625,679,620,650,619,627,658,607,647,620,600,615
40.7276,621,671,646,689,636,649,649,601,657,607,622,653,626
40.7881,624,665,716,644,674,626,661,687,598,638,657,607,655
40.8486,696,648,651,674,619,651,657,628,614,654,611,617,655
40.9091,702,601,696,664,648,707,662,612,635,650,653,633,673
40.9696,651,704,717,680,691,606,630,634,633,633,623,648,593
41.0301,646,651,632,668,629,635,600,638,646,635,630,625,602
41.0906,661,666,618,670,633,620,611,635,617,595,663,621,624
41.1511,733,705,662,716,635,592,620,611,682,620,633,607,629
41.2116,704,652,674,615,636,648,636,655,666,603,626,648,651
41.2721,678,635,668,721,682,653,635,618,626,599,568,641,617
41.3326,686,697,674,695,703,624,596,607,644,648,598,652,652
41.3931,667,695,694,670,635,613,645,577,653,661,651,659,634
41.4536,733,642,731,667,740,596,628,608,654,641,603,641,632
41.5141,733,686,722,720,668,671,644,595,612,623,679,641,652
41.5746,751,671,699,748,656,707,644,623,595,668,650,638,619
41.6351,654,735,749,692,697,716,653,682,648,692,687,657,683
41.6956,755,791,724,782,659,636,617,658,633,675,624,607,602
41.7562,757,735,702,740,761,691,710,685,713,703,685,721,666
41.8167,804,806,718,764,786,738,729,775,755,762,727,731,734
41.8772,793,729,836,784,793,716,750,747,730,737,706,753,763
41.9377,808,808,814,762,829,730,775,747,749,758,726,686,737
41.9982,790,813,807,777,840,757,741,761,768,739,766,730,767
42.0587,861,820,813,853,808,808,738,750,740,781,788,798,727
42.1192,846,850,794,865,861,802,727,835,817,770,798,736,709
42.1797,871,846,878,796,809,759,744,748,686,763,786,797,772
42.2402,847,871,881,848,794,750,810,778,795,757,753,759,770
42.3007,889,905,927,949,808,818,794,744,805,781,808,823,771
42.3612,924,923,913,939,912,870,737,782,742,718,735,762,800
42.4217,974,935,910,1007,897,841,807,794,738,780,752,766,733
42.4822,957,935,997,922,908,810,834,789,803,744,749,793,765
42.5427,1040,990,1017,1100,887,793,818,870,788,807,817,808,842
42.6032,1091,1061,1108,1061,958,833,897,808,813,815,815,816,799
42.6637,1125,1170,1178,1104,976,855,873,828,833,804,755,817,815
42.7242,1305,1301,1253,1255,1034,871,832,887,838,826,810,806,808
42.7847,1425,1393,1378,1388,1164,948,900,867,911,875,867,943,882
42.8453,1678,1679,1560,1537,1341,1028,1019,976,1009,950,940,913,967
42.9058,1977,1982,1886,1853,1545,1255,1182,1146,1143,1109,1125,1101,1111
42.9663,2534,2439,2279,2260,1876,1413,1373,1225,1203,1261,1285,1231,1222
43.0268,3052,3127,3003,2917,2255,1636,1468,1473,1336,1388,1418,1448,1421
43.0873,4424,4293,4134,3976,3172,2251,1946,1878,1867,1888,1821,1769,1864
43.1478,6476,6540,6231,6029,4699,3113,2489,2315,2332,2260,2233,2310,2247
43.2083,10527,10443,10169,9753,7636,5032,3890,3768,3766,3724,3802,3588,3573
43.2688,14856,15436,15542,17436,20391,23303,21614,22110,25513,23378,24608,22619,22281
43.3293,15837,16638,17006,18947,25317,34902,43573,45255,39683,43044,41484,44402,44111
43.3898,13715,14391,14783,15679,17716,18973,18650,18722,20518,19591,19927,19046,18763
43.4503,10248,10911,11063,11375,12282,14517,17221,18021,15472,16918,16441,17659,17643
43.5108,6992,7078,7176,6663,5620,3882,3179,3014,2958,3087,2902,2994,2907
43.5713,4795,4751,4729,4540,3597,2461,2084,1980,1946,1888,1879,1897,1932
43.6318,3259,3369,3344,3140,2636,1774,1606,1522,1451,1474,1478,1543,1591
43.6923,2502,2523,2529,2440,2005,1535,1346,1254,1239,1174,1180,1141,1148
43.7528,2013,2058,2016,2000,1618,1266,1058,1038,982,1040,987,1091,973
43.8133,1764,1761,1724,1615,1448,1037,879,868,928,912,905,907,885
43.8738,1528,1453,1442,1415,1245,956,931,857,876,865,900,865,852
43.9344,1343,1384,1335,1320,1095,962,905,817,820,866,872,805,813
43.9949,1260,1240,1313,1193,1088,904,864,852,828,738,769,855,823
44.0554,1133,1174,1218,1152,1074,922,797,831,817,773,796,817,799
44.1159,1048,1134,1023,1001,987,911,805,776,843,784,790,759,729
44.1764,1021,1024,1022,1026,926,838,798,727,824,782,796,854,776
44.2369,952,990,1005,969,926,820,782,830,742,755,800,867,781
44.2974,983,989,954,952,901,834,811,728,752,770,778,760,742
44.3579,922,935,887,900,896,791,750,752,739,768,757,790,781
44.4184,908,887,899,894,877,831,763,759,714,764,750,731,713
44.4789,869,949,888,861,853,776,730,727,762,796,723,775,730
44.5394,905,931,868,800,827,789,736,755,761,727,705,746,759
44.5999,877,908,895,828,825,778,737,733,744,724,767,779,681
44.6604,816,910,869,816,827,752,735,738,711,691,758,703,718
44.7209,790,779,869,807,799,705,729,717,710,695,678,733,708
44.7814,784,837,826,807,827,745,730,741,710,708,756,731,714
44.8419,849,799,785,798,754,736,694,727,749,730,698,744,720
44.9024,800,818,794,819,776,765,734,701,693,763,714,722,722
44.9629,806,804,819,767,773,742,679,744,703,685,745,714,712
45.0235,809,831,803,805,738,718,704,707,684,705,724,696,777
45.084,781,814,785,794,783,724,708,747,698,754,697,716,763
45.1445,764,787,731,788,697,732,744,658,711,702,708,740,677
45.205,806,823,775,782,739,715,758,705,766,724,696,710,688
45.2655,724,810,776,748,751,745,724,709,793,755,745,740,693
45.326,757,843,794,787,754,740,695,770,778,755,734,786,741
45.3865,776,766,776,755,794,727,698,762,681,642,730,707,704
45.447,733,781,783,736,716,740,730,763,675,680,675,674,725
45.5075,747,703,767,747,762,689,692,649,722,658,647,695,729
45.568,728,768,739,711,712,778,676,677,704,721,711,716,661
45.6285,783,760,746,754,735,732,654,647,707,667,645,721,689
45.689,711,791,773,752,741,726,694,737,704,729,714,695,690
45.7495,736,749,723,753,731,682,726,688,699,696,705,679,716
45.81,661,787,762,775,762,718,726,736,684,710,710,694,694
45.8705,743,753,763,758,751,698,722,637,693,693,682,693,664
45.931,747,755,731,686,725,691,728,714,686,720,673,684,682
45.9915,700,730,759,723,680,653,752,696,723,644,691,741,751
46.052,717,768,779,708,705,651,683,678,692,724,671,702,691
46.1126,783,734,698,724,764,642,687,697,691,719,740,680,683
46.1731,776,725,748,734,744,671,699,687,719,721,686,627,703
46.2336,693,724,733,705,660,720,685,652,661,688,656,671,675
46.2941,654,689,755,757,688,716,712,658,651,666,645,711,669
46.3546,747,744,785,747,702,672,722,708,646,704,685,690,646
46.4151,728,704,714,702,782,703,676,695,664,627,603,676,717
46.4756,720,733,708,715,694,674,704,673,711,694,691,684,722
46.5361,749,753,691,722,687,668,697,658,696,675,682,711,707
46.5966,776,718,717,741,705,684,685,684,737,698,696,636,710
46.6571,737,749,732,723,668,703,665,626,676,652,713,660,694
46.7176,753,727,744,689,675,645,660,707,685,700,708,720,678
46.7781,729,730,739,710,716,687,713,653,695,667,660,690,663
46.8386,708,780,783,732,665,681,630,689,661,675,701,689,673
46.8991,730,770,706,737,714,687,658,702,684,689,683,660,699
46.9596,696,715,706,746,685,701,618,672,685,666,693,687,678
47.0201,715,715,710,691,685,665,696,650,679,648,685,682,697
47.0806,685,691,711,712,732,700,717,679,749,710,679,688,692
47.1411,707,708,751,724,686,707,691,679,704,689,659,684,684
47.2017,731,727,695,720,704,723,682,665,651,751,712,673,644
47.2622,700,729,708,668,697,694,683,646,669,671,658,714,647
47.3227,731,708,681,703,728,680,671,666,671,710,700,673,646
47.3832,697,679,687,682,698,671,691,630,694,683,707,670,687
47.4437,717,715,761,688,675,677,669,681,696,622,671,671,651
47.5042,676,674,690,694,710,684,693,640,636,673,651,662,677
47.5647,734,686,726,698,692,670,665,665,695,655,657,662,633
47.6252,741,736,718,737,667,669,654,665,686,683,672,665,688
47.6857,713,715,680,705,697,649,662,620,685,671,617,639,668
47.7462,738,730,692,706,737,656,707,647,699,680,671,680,693
47.8067,703,695,684,709,695,662,653,676,635,659,678,614,642
47.8672,701,712,737,698,704,661,655,667,653,675,677,660,674
47.9277,750,723,696,726,663,645,668,658,678,668,628,677,667
47.9882,723,720,726,728,680,633,677,669,659,666,724,675,657
48.0487,760,749,755,706,660,706,653,667,662,665,658,666,659
48.1092,742,680,736,704,694,664,656,721,629,660,658,682,694
48.1697,759,711,692,740,685,687,656,658,682,653,661,685,628
48.2302,687,710,693,706,726,701,682,648,679,711,649,653,652
48.2908,751,693,787,769,743,642,651,674,658,717,682,678,668
48.3513,750,756,708,708,706,690,693,681,637,672,661,655,644
48.4118,696,713,690,704,716,647,667,682,662,663,637,635,636
48.4723,754,758,773,728,662,696,640,669,619,615,612,651,661
48.5328,709,736,785,721,674,650,661,662,671,636,678,690,690
48.5933,778,738,738,825,724,684,688,683,708,641,687,703,690
48.6538,764,749,756,756,720,696,689,717,662,687,704,645,731
48.7143,759,764,738,754,709,668,676,687,663,702,690,697,676
48.7748,798,731,804,749,729,687,695,685,646,690,700,683,703
48.8353,765,791,699,764,730,698,719,684,698,714,695,647,681
48.8958,733,766,758,782,802,736,634,721,684,683,717,679,696
48.9563,783,766,800,759,782,658,726,671,681,761,710,685,667
49.0168,808,822,727,811,760,688,683,719,674,667,700,670,661
49.0773,796,801,820,741,808,695,704,694,673,718,722,726,674
49.1378,791,809,813,805,770,677,698,608,697,678,682,663,709
49.1983,804,767,850,786,810,672,677,693,688,705,656,681,675
49.2588,813,821,823,850,790,693,700,681,673,714,659,645,678
49.3193,842,843,857,779,788,726,720,669,686,674,653,680,696
49.3799,869,856,850,831,809,728,667,702,691,698,711,694,675
49.4404,803,864,847,875,806,694,729,685,678,703,662,726,697
49.5009,889,893,948,852,799,746,694,733,644,740,737,721,711
49.5614,908,967,933,918,797,741,700,710,714,674,685,666,703
49.6219,977,895,957,924,876,732,703,691,669,708,688,726,687
49.6824,1000,992,985,987,840,736,721,684,728,685,713,744,721
49.7429,1094,1072,1046,972,881,771,705,690,699,683,737,680,674
49.8034,1136,1117,1110,1063,968,784,762,723,713,755,676,716,736
49.8639,1272,1260,1210,1202,1059,807,747,730,718,692,753,729,779
49.9244,1401,1380,1329,1306,1029,873,769,736,776,725,731,760,777
49.9849,1564,1521,1502,1478,1196,920,795,717,765,757,757,773,784
50.0454,1677,1742,1716,1675,1293,1042,810,808,847,871,857,808,831
50.1059,2078,2084,2048,1943,1497,1126,879,911,871,834,913,897,899
50.1664,2428,2426,2371,2317,1810,1226,1009,975,952,951,983,1001,944
50.2269,2828,2970,2811,2511,2056,1476,1138,1200,1135,1120,1074,1144,1049
50.2874,3344,3376,3246,3104,2484,1676,1405,1336,1301,1314,1323,1387,1277
50.3479,3652,3856,3773,3730,3210,2773,2327,2379,2458,2291,2417,2296,2266
50.4084,4009,4155,4365,5165,7016,8713,8673,8728,9310,8740,9177,9006,8797
50.469,3955,4087,4237,4750,5764,7745,9332,9528,8929,9489,9412,9587,9523
50.5295,3591,3865,3861,4104,4563,4832,4692,4869,4941,4752,4828,4888,4753
50.59,3392,3352,3619,3799,4584,5689,6499,6589,6430,6626,6573,6764,6539
50.6505,2869,2989,2984,2856,2540,2066,2143,2114,1977,2027,1942,2035,1979
50.711,2415,2501,2472,2388,1991,1467,1253,1243,1148,1174,1215,1260,1206
50.7715,2093,2120,2154,2015,1672,1155,1034,995,948,966,981,979,968
50.832,1804,1787,1769,1673,1358,1001,880,898,814,914,814,837,850
50.8925,1509,1584,1556,1566,1293,932,806,801,765,820,797,796,787
50.953,1394,1363,1359,1258,1088,844,769,746,781,742,731,740,728
51.0135,1152,1221,1242,1109,1024,806,722,777,714,722,751,692,699
51.074,1089,1118,1103,1056,956,794,698,730,756,723,716,705,721
51.1345,1022,1060,997,966,897,787,724,718,697,688,697,694,690
51.195,1026,1017,980,963,875,762,707,667,724,641,733,692,697
51.2555,898,876,923,880,858,713,747,687,605,668,716,682,680
51.316,900,918,871,858,762,730,716,684,682,694,723,668,690
51.3765,838,827,859,783,746,698,667,687,703,679,697,647,725
51.437,807,793,841,750,838,703,688,698,664,660,674,671,641
51.4975,752,812,825,751,754,720,615,672,661,667,654,661,605
51.5581,790,749,741,728,755,624,696,661,666,634,678,656,682
51.6186,758,737,749,788,720,695,672,653,664,693,660,693,688
51.6791,775,744,751,694,681,654,688,658,672,696,668,677,684
51.7396,716,724,768,721,698,681,656,691,656,646,650,673,662
51.8001,705,696,690,704,670,670,653,652,673,695,657,708,691
51.8606,748,741,719,718,693,665,652,638,655,651,675,693,682
51.9211,660,740,717,698,725,676,668,667,654,640,657,633,646
51.9816,739,722,716,715,652,682,674,635,680,638,660,614,619
52.0421,712,684,615,669,676,643,665,658,654,648,665,685,658
52.1026,695,717,757,682,679,662,664,682,671,651,605,633,631
52.1631,709,683,702,716,673,679,675,685,650,615,642,668,658
52.2236,692,697,671,654,650,635,658,646,672,660,653,654,695
52.2841,658,685,662,673,714,646,661,615,655,678,662,669,680
52.3446,704,654,721,701,666,655,686,667,642,647,655,623,604
52.4051,659,622,744,705,693,656,617,681,641,599,625,629,664
52.4656,682,645,646,683,668,663,643,646,643,637,620,662,610
52.5261,691,671,698,655,622,720,663,695,629,648,644,651,640
52.5866,668,643,692,688,662,703,677,650,656,654,632,634,612
52.6472,669,643,680,677,639,636,615,639,627,665,675,640,609
52.7077,647,625,661,673,585,637,661,614,699,656,645,691,647
52.7682,693,686,626,659,654,708,604,632,657,653,653,610,671
52.8287,687,636,643,666,655,665,635,686,610,649,665,615,685
52.8892,671,673,657,671,674,642,667,683,658,716,643,611,658
52.9497,638,674,670,653,652,630,605,631,672,652,647,605,645
53.0102,653,660,627,663,663,609,657,661,671,665,636,677,636
53.0707,633,711,581,629,657,626,676,610,647,685,644,626,615
53.1312,668,653,677,670,652,599,649,663,629,611,658,659,617
53.1917,693,659,673,656,643,616,653,649,601,650,601,666,653
53.2522,635,657,657,688,613,634,627,638,689,619,664,663,618
53.3127,627,624,664,666,691,660,643,627,623,658,631,682,616
53.3732,671,649,641,699,658,674,609,647,647,647,645,673,640
53.4337,646,673,652,683,625,639,597,637,614,654,658,625,704
53.4942,686,698,667,655,658,592,632,627,656,647,623,631,603
53.5547,620,618,676,619,655,642,680,670,582,642,640,649,605
53.6152,640,642,696,662,634,665,625,599,617,617,627,651,619
53.6757,624,661,630,682,635,631,588,620,655,620,679,607,650
53.7363,649,639,644,631,631,646,622,629,655,669,612,565,652
53.7968,681,674,604,652,665,635,631,641,620,619,629,595,610
53.8573,646,703,618,622,641,634,660,626,615,610,686,638,634
53.9178,651,698,693,641,681,653,660,619,647,613,599,615,632
53.9783,608,642,609,656,633,670,617,621,622,646,576,650,672
54.0388,653,659,665,633,635,650,615,658,610,589,609,637,658
54.0993,627,649,624,659,642,649,602,654,630,641,620,632,662
54.1598,641,638,614,634,626,627,648,646,595,636,616,633,665
54.2203,666,633,657,593,626,629,677,673,629,668,622,633,615
54.2808,645,646,600,685,669,666,641,606,613,568,646,650,632
54.3413,626,690,655,631,718,620,619,656,618,632,619,661,573
54.4018,627,662,603,663,662,620,655,665,611,702,628,612,605
54.4623,615,627,611,666,597,581,630,647,655,638,610,638,629
54.5228,647,627,630,611,597,644,605,646,632,617,651,645,609
54.5833,655,633,655,604,666,624,647,623,624,610,643,609,632
54.6438,629,612,628,685,649,621,653,642,635,715,627,660,618
54.7043,663,665,651,603,666,616,600,638,610,663,614,651,602
54.7648,650,660,619,637,611,670,642,619,676,619,568,658,599
54.8254,608,647,610,717,623,630,625,647,610,602,599,630,677
54.8859,623,624,646,619,678,639,630,658,568,613,647,593,637
54.9464,627,672,618,629,631,605,590,636,644,629,632,622,629
55.0069,609,632,605,673,650,658,622,651,664,641,633,616,614
55.0674,635,639,633,632,575,621,602,642,634,665,586,582,611
55.1279,657,682,664,655,638,616,655,682,663,610,656,630,669
55.1884,654,662,612,666,632,631,594,655,670,649,639,651,606
55.2489,593,623,641,618,629,645,639,673,642,671,654,627,582
55.3094,642,667,636,635,634,633,610,665,609,633,617,671,638
55.3699,610,662,664,690,671,656,618,586,640,612,654,664,621
55.4304,614,649,616,648,668,603,628,606,653,661,624,600,658
55.4909,662,629,679,622,645,579,626,622,633,613,650,619,602
55.5514,634,645,687,663,646,657,614,648,612,676,622,653,632
55.6119,627,633,634,615,621,599,660,610,636,627,637,661,616
55.6724,599,623,658,664,615,628,633,614,659,622,659,624,670
55.7329,594,630,645,631,622,620,650,676,632,633,562,646,613
55.7934,629,671,632,626,598,596,624,625,671,683,641,631,604
55.854,607,597,625,609,631,653,578,624,629,610,665,590,600
55.9145,602,623,614,677,656,610,623,645,619,679,599,606,596
55.975,636,605,607,640,606,611,621,680,605,603,635,637,609
56.0355,601,614,629,626,578,639,613,622,605,666,662,637,662
56.096,607,623,619,580,656,626,644,612,586,602,632,630,612
56.1565,647,655,638,625,657,631,623,670,586,637,634,674,674
56.217,606,609,616,685,629,616,645,622,606,594,636,650,638
56.2775,623,602,618,619,662,599,653,605,591,638,623,648,585
56.338,625,580,614,664,619,633,630,630,671,633,614,626,622
56.3985,590,620,641,616,624,615,600,612,582,632,634,561,578
56.459,603,622,604,627,680,666,621,665,621,623,618,602,644
56.5195,614,653,617,608,650,589,610,625,627,632,593,638,635
56.58,611,610,608,607,579,601,624,585,632,572,623,632,594
56.6405,627,619,621,630,630,620,602,642,629,646,613,621,639
56.701,655,584,616,633,636,618,620,629,600,617,627,630,608
56.7615,602,575,628,670,633,647,614,601,647,646,627,616,610
56.822,613,579,639,613,635,624,595,616,601,610,600,630,621
56.8825,599,646,620,611,678,644,630,622,630,644,621,635,657
56.9431,627,616,634,584,653,618,642,655,579,630,607,678,595
57.0036,593,640,612,620,617,593,554,673,620,657,617,682,603
57.0641,609,605,582,620,656,590,624,594,621,634,643,622,616
57.1246,601,625,670,605,639,639,629,611,630,608,630,597,570
57.1851,666,654,585,626,603,616,631,617,601,605,598,629,606
57.2456,612,606,623,610,643,604,602,601,597,594,568,622,592
57.3061,637,557,655,658,603,660,636,657,613,617,607,624,604
57.3666,658,601,660,627,642,620,567,605,614,583,634,706,567
57.4271,580,660,582,613,620,642,647,600,603,662,646,576,575
57.4876,635,604,658,643,632,630,610,625,588,630,628,651,564
57.5481,641,613,657,633,640,665,618,593,651,617,599,649,610
57.6086,579,620,622,623,598,595,624,634,583,647,681,613,600
57.6691,624,674,591,567,646,629,628,620,628,586,576,609,627
57.7296,599,578,656,614,645,624,599,593,619,669,585,602,632
57.7901,598,619,638,640,673,633,633,642,592,593,632,597,641
57.8506,606,613,540,641,640,587,635,615,625,648,607,608,644
57.9111,624,576,640,652,628,671,618,633,607,571,633,617,584
57.9716,587,624,603,631,647,631,620,628,616,602,619,605,624
58.0322,595,633,588,631,633,666,617,664,624,599,607,570,627
58.0927,613,585,629,641,684,578,610,624,619,660,662,625,616
58.1532,639,613,662,640,605,586,631,615,626,607,602,597,621
58.2137,629,620,670,590,613,582,634,651,617,620,588,631,607
58.2742,602,667,615,635,665,636,651,580,639,652,628,643,617
58.3347,633,594,595,629,641,613,651,589,612,642,598,630,587
58.3952,598,611,577,600,628,561,624,558,601,616,593,641,608
58.4557,637,632,643,581,635,657,587,671,629,607,570,598,580
58.5162,610,657,679,626,600,649,584,635,619,616,652,630,639
58.5767,622,547,604,631,605,557,618,590,593,622,584,607,603
58.6372,604,600,628,613,613,608,590,591,576,585,624,614,611
58.6977,624,619,590,660,626,590,612,627,629,611,633,649,578
58.7582,626,635,604,623,643,587,621,638,641,642,657,608,630
58.8187,615,650,605,605,611,603,566,602,568,646,618,626,607
58.8792,577,588,625,631,591,642,633,581,603,616,639,660,637
58.9397,598,618,608,634,634,594,563,634,604,586,604,594,621
59.0002,586,592,569,626,582,575,617,612,654,587,613,603,635
59.0607,642,619,608,636,591,579,605,589,659,619,644,616,627
59.1213,620,660,602,610,655,629,580,629,621,623,616,616,582
59.1818,574,618,628,632,649,610,617,608,653,618,578,643,596
59.2423,558,640,603,598,656,616,614,661,612,627,613,619,560
59.3028,597,611,606,620,621,621,622,652,595,602,631,609,607
59.3633,577,623,628,593,628,584,606,627,591,622,627,615,590
59.4238,596,627,638,606,635,605,597,564,625,617,622,635,616
59.4843,614,597,613,640,628,623,616,603,605,594,641,582,610
59.5448,604,595,635,629,650,624,605,590,644,597,570,586,604
59.6053,593,605,630,607,657,599,602,602,624,651,609,588,647
59.6658,607,593,647,633,632,636,633,593,568,639,605,606,627
59.7263,632,576,646,602,604,619,631,628,610,624,616,609,586
59.7868,588,616,612,589,612,634,612,628,596,618,656,600,608
59.8473,589,572,596,646,612,609,620,647,573,662,616,628,586
59.9078,618,595,580,625,609,583,624,633,641,613,651,621,628
59.9683,641,636,618,617,607,577,612,613,620,570,614,648,609
60.0288,598,634,643,628,619,628,658,574,603,605,634,600,583
60.0893,581,643,673,647,597,580,604,595,672,604,630,613,625
60.1498,592,614,603,650,608,635,621,616,596,610,634,633,613
60.2104,625,600,583,604,622,682,627,606,625,634,629,608,608
60.2709,639,632,636,611,610,626,602,599,626,610,606,643,632
60.3314,624,631,606,613,598,630,631,637,617,622,535,642,606
60.3919,655,565,588,575,622,606,596,583,640,591,582,605,600
60.4524,614,594,637,655,600,586,592,633,624,597,563,634,627
60.5129,612,594,590,595,614,603,559,641,580,579,626,588,609
60.5734,605,598,619,607,595,588,583,590,611,613,610,638,578
60.6339,616,590,674,619,641,635,632,625,575,628,624,620,652
60.6944,696,607,591,581,591,611,588,664,606,628,611,636,565
60.7549,600,633,642,606,603,608,601,633,587,617,614,629,581
60.8154,614,643,613,581,640,620,597,603,598,606,589,632,597
60.8759,601,636,625,617,595,588,559,603,628,617,608,563,596
60.9364,617,623,633,629,597,602,646,606,577,647,600,626,578
60.9969,602,607,612,595,618,563,646,622,604,611,602,615,604
61.0574,610,570,644,616,605,571,607,587,588,580,613,660,628
61.1179,583,613,617,606,586,624,622,600,617,613,640,604,603
61.1784,621,621,587,613,602,573,571,615,654,642,609,575,629
61.2389,564,635,596,581,634,614,626,583,547,629,622,636,608
61.2995,571,595,617,599,635,611,607,638,645,563,593,650,596
61.36,632,600,583,669,655,600,625,542,595,627,603,618,596
61.4205,611,573,617,607,561,599,608,624,598,593,581,627,616
61.481,596,595,609,591,591,573,616,578,586,595,609,605,600
61.5415,632,610,630,639,577,600,622,593,581,676,599,591,590
61.602,592,620,597,638,625,600,650,596,584,572,608,600,608
61.6625,574,646,618,639,625,575,639,640,590,619,618,557,612
61.723,589,593,583,608,602,611,597,648,596,649,593,586,575
61.7835,621,628,558,629,621,604,664,625,597,570,585,569,613
61.844,609,623,630,608,634,591,651,574,585,593,556,581,580
61.9045,592,628,604,635,572,668,598,625,612,577,588,606,639
61.965,592,630,626,640,612,635,615,601,576,604,600,618,646
62.0255,670,637,640,560,592,599,584,605,590,632,608,618,643
62.086,636,675,598,572,620,576,608,594,607,590,643,582,576
62.1465,617,604,588,622,595,608,584,595,600,599,635,579,588
62.207,616,625,622,594,576,588,571,624,599,609,628,612,593
62.2675,612,585,604,630,627,654,586,588,608,642,594,580,617
62.328,591,591,622,579,612,623,563,656,638,606,594,625,598
62.3886,550,572,612,558,600,610,618,591,609,612,652,607,617
62.4491,601,628,603,617,631,621,615,585,609,600,589,601,580
62.5096,617,618,606,615,569,581,582,598,583,655,612,602,616
62.5701,585,582,616,605,607,595,619,639,597,620,587,637,571
62.6306,594,648,610,610,596,565,595,610,600,592,597,591,554
62.6911,579,638,639,648,629,612,592,659,642,598,616,593,626
62.7516,670,587,573,622,594,609,551,632,610,548,636,649,574
62.8121,611,608,589,661,579,637,559,598,565,591,612,591,553
62.8726,581,621,616,624,584,600,582,609,590,586,593,635,558
62.9331,583,604,587,637,616,584,586,610,567,586,612,575,584
62.9936,584,580,589,624,620,616,596,612,628,603,635,615,640
63.0541,593,593,599,604,628,610,649,607,600,609,610,608,598
63.1146,577,606,601,652,628,671,610,635,590,638,597,628,602
63.1751,547,609,596,621,618,652,576,620,599,614,600,559,618
63.2356,614,627,626,615,610,626,615,599,633,622,597,617,600
63.2961,613,625,586,606,579,584,620,625,592,634,597,632,609
63.3566,574,573,610,597,613,580,620,613,612,635,605,596,571
63.4171,576,611,606,598,615,591,629,606,597,649,609,593,620
63.4777,615,610,552,594,597,551,607,608,615,601,600,579,595
63.5382,626,601,612,631,580,590,624,605,568,602,623,584,606
63.5987,567,636,595,543,609,600,597,595,567,626,617,597,614
63.6592,609,604,601,591,597,608,592,612,590,596,581,599,620
63.7197,657,585,584,617,619,586,584,643,575,602,575,591,604
63.7802,584,578,585,566,568,639,627,629,585,639,633,633,626
63.8407,620,577,643,603,631,542,621,601,634,631,632,623,618
63.9012,629,558,566,592,615,623,592,603,575,579,639,634,560
63.9617,579,549,626,622,626,585,606,625,615,564,652,594,625
64.0222,622,625,607,604,630,575,592,619,633,617,570,576,582
64.0827,623,589,654,614,606,598,601,601,596,610,653,638,588
64.1432,624,637,623,637,580,598,549,625,574,613,589,644,610
64.2037,605,593,590,595,602,604,605,603,550,622,598,636,638
64.2642,600,619,606,629,591,608,600,585,583,638,534,681,640
64.3247,639,621,614,599,586,587,605,629,613,567,585,635,560
64.3852,582,588,608,619,585,573,586,586,549,645,625,624,539
64.4457,628,631,620,644,596,638,660,654,608,584,627,640,591
64.5062,601,618,598,608,629,619,613,616,623,568,613,627,565
64.5668,593,524,622,606,621,556,590,615,571,620,584,628,608
64.6273,575,592,616,618,572,593,589,587,607,635,604,615,604
64.6878,621,629,598,615,634,581,613,593,620,597,589,611,613
64.7483,555,618,602,590,562,578,627,624,589,625,592,586,579
64.8088,589,588,632,622,597,554,620,616,577,609,557,612,608
64.8693,584,627,553,592,621,639,614,596,597,625,578,597,573
64.9298,588,563,592,559,625,581,614,612,585,617,625,621,571
64.9903,585,608,613,601,664,540,620,608,572,592,627,601,615
65.0508,629,608,588,636,659,543,604,653,602,607,543,632,592
65.1113,595,623,627,580,608,559,585,575,608,629,627,608,623
65.1718,584,612,638,594,565,571,623,598,587,631,635,622,564
65.2323,596,595,582,629,607,559,612,602,621,613,608,588,568
65.2928,588,576,566,596,565,585,598,613,574,544,588,610,615
65.3533,614,586,604,624,614,662,621,623,597,566,626,615,624
65.4138,558,582,656,611,573,621,585,606,610,600,590,661,611
65.4743,585,568,589,622,609,611,541,590,591,586,598,574,563
65.5348,547,605,586,607,610,531,639,591,612,654,627,628,566
65.5953,618,569,574,612,629,600,621,624,603,604,579,582,592
65.6559,613,598,568,658,578,587,648,617,609,613,588,627,587
65.7164,573,666,622,574,599,620,583,617,578,581,577,593,628
65.7769,577,562,582,584,635,604,582,577,603,577,582,596,589
65.8374,601,582,606,580,611,560,623,601,630,537,616,641,583
65.8979,624,578,636,595,580,614,589,605,614,593,579,606,590
65.9584,618,568,568,623,606,624,610,648,636,616,603,639,600
66.0189,576,551,626,621,593,597,668,622,601,562,634,615,606
66.0794,626,609,588,596,571,612,592,596,587,653,638,581,608
66.1399,603,614,631,608,623,631,588,657,581,632,585,602,598
66.2004,615,636,599,615,613,601,587,622,579,599,623,617,635
66.2609,601,567,605,609,580,598,611,641,611,623,625,590,619
66.3214,611,562,606,593,600,618,631,614,612,620,565,578,618
66.3819,639,607,598,618,623,565,640,629,626,584,646,663,595
66.4424,616,639,588,596,583,591,579,622,592,592,592,595,566
66.5029,583,554,582,618,637,601,575,566,605,643,585,593,585
66.5634,594,635,617,567,579,592,636,614,604,588,587,630,596
66.6239,611,637,641,575,595,603,637,601,550,610,617,586,613
66.6844,632,606,614,662,613,661,657,631,622,639,570,633,594
66.745,613,580,592,599,617,607,623,576,575,607,604,577,595
66.8055,599,603,615,608,634,596,655,604,591,620,588,582,614
66.866,554,632,609,586,567,552,580,626,618,582,617,578,592
66.9265,590,551,578,612,539,577,616,632,529,596,574,574,557
66.987,629,623,611,596,633,617,544,593,554,574,587,630,606
67.0475,596,604,603,605,552,612,610,588,609,602,598,623,611
67.108,601,594,589,594,627,580,606,596,630,619,619,617,626
67.1685,566,621,579,599,591,601,651,573,628,653,581,562,592
67.229,601,593,614,612,586,614,584,596,579,616,621,631,623
67.2895,643,612,613,574,581,590,606,608,574,622,608,614,578
67.35,611,602,615,592,567,593,665,604,565,630,629,572,585
67.4105,605,595,566,605,613,621,613,640,622,615,558,601,603
67.471,611,576,567,605,655,594,593,574,553,643,604,570,609
67.5315,609,592,619,608,614,597,556,610,619,638,613,572,625
67.592,545,585,611,634,554,589,583,594,567,572,605,600,638
67.6525,565,591,583,596,629,592,640,598,605,601,594,624,589
67.713,652,598,575,583,572,610,610,601,614,580,608,605,598
67.7735,542,563,616,615,607,600,602,592,637,593,586,597,575
67.8341,569,567,604,592,606,636,568,589,573,629,661,570,595
67.8946,614,613,603,604,563,617,561,566,592,640,650,584,586
67.9551,602,615,586,621,601,592,575,562,575,598,639,593,581
68.0156,615,600,577,633,588,569,555,623,569,613,617,596,582
68.0761,579,609,594,554,619,570,603,599,562,592,627,618,569
68.1366,619,588,586,592,570,553,566,615,578,622,562,586,629
68.1971,584,593,614,600,590,585,636,605,625,590,598,593,584
68.2576,579,568,614,635,644,645,594,571,621,625,614,614,594
68.3181,613,579,589,623,594,611,616,585,607,619,632,615,616
68.3786,589,553,603,562,622,581,629,574,612,573,625,579,559
68.4391,598,602,571,583,586,607,563,546,578,639,580,579,585
68.4996,599,572,566,602,598,622,624,603,586,572,607,597,591
68.5601,639,633,605,595,557,623,634,584,630,597,612,593,602
68.6206,582,589,592,597,620,601,573,601,606,618,593,635,608
68.6811,593,586,656,615,573,531,604,635,622,605,581,611,612
68.7416,584,582,606,607,635,604,612,612,593,594,626,567,583
68.8021,625,613,558,607,591,630,602,621,585,580,570,560,627
68.8626,600,603,547,616,594,623,581,539,632,610,572,629,618
68.9232,603,578,609,586,602,614,600,653,595,606,587,606,605
68.9837,646,621,567,578,643,566,623,584,576,604,583,616,579
69.0442,625,628,632,651,623,585,599,582,628,591,609,595,583
69.1047,571,586,576,611,593,595,586,623,584,601,595,600,614
69.1652,603,599,587,599,607,589,620,545,624,592,586,602,620
69.2257,593,599,549,566,587,600,620,587,626,606,610,603,619
69.2862,566,589,629,574,623,540,613,584,581,640,624,608,634
69.3467,661,625,603,576,611,565,578,592,589,555,603,605,561
69.4072,580,601,578,587,613,570,608,619,602,594,627,586,613
69.4677,600,597,633,608,617,581,591,610,600,601,604,619,594
69.5282,606,601,578,560,564,586,631,590,638,599,640,592,544
69.5887,542,616,581,628,584,574,639,578,609,583,614,574,609
69.6492,584,589,658,629,573,586,665,625,593,584,604,569,663
69.7097,582,571,616,617,584,571,625,591,578,583,601,613,590
69.7702,574,598,610,600,614,565,624,607,587,625,586,612,605
69.8307,612,565,592,599,627,552,603,586,584,661,595,593,573
69.8912,594,637,608,616,563,590,595,588,642,578,550,581,601
69.9517,595,613,579,586,617,603,601,592,622,620,580,591,576
70.0123,626,611,612,560,599,594,575,585,625,639,589,606,610
70.0728,590,574,603,604,563,612,574,613,631,596,585,630,607
70.1333,573,596,607,584,569,606,568,620,641,634,588,634,570
70.1938,585,593,607,589,607,601,639,600,620,586,615,658,624
70.2543,585,578,586,627,610,643,612,620,612,588,591,572,580
70.3148,601,588,569,570,639,609,615,631,591,631,609,630,584
70.3753,580,603,570,606,606,613,555,617,623,609,624,603,558
70.4358,587,598,596,628,559,603,611,575,584,596,614,610,594
70.4963,627,581,603,574,635,625,624,591,565,592,595,610,602
70.5568,589,596,562,584,622,578,573,591,579,634,613,614,600
70.6173,614,580,611,588,586,602,606,621,648,623,600,603,583
70.6778,604,608,588,635,619,579,610,636,574,602,595,610,611
70.7383,626,568,576,616,589,638,613,622,542,610,594,610,570
70.7988,619,561,584,599,577,580,587,585,597,609,629,638,588
70.8593,595,635,613,599,608,609,614,589,558,578,557,567,590
70.9198,574,600,642,569,617,545,581,589,613,607,569,569,583
70.9803,640,576,606,585,613,574,604,591,576,613,641,595,580
71.0409,585,577,608,549,624,574,578,564,618,592,551,627,580
71.1014,573,623,624,609,630,563,626,621,602,558,567,627,612
71.1619,628,620,620,622,576,633,632,662,627,626,633,620,611
71.2224,587,611,570,590,581,653,621,592,600,617,603,611,578
71.2829,592,606,595,621,656,607,607,641,646,594,617,600,603
71.3434,587,607,614,650,639,594,639,629,610,625,612,628,612
71.4039,607,580,643,560,630,616,628,575,615,611,630,594,609
71.4644,605,608,647,622,597,589,604,582,618,640,609,639,627
71.5249,585,620,579,611,616,626,610,655,641,609,606,609,583
71.5854,576,587,585,628,618,616,604,615,673,653,643,635,629
71.6459,616,598,579,613,605,625,615,621,613,591,644,664,647
71.7064,589,620,602,601,628,639,673,589,633,610,621,656,605
71.7669,598,621,624,612,641,622,636,640,595,644,633,619,575
71.8274,603,599,575,641,610,621,662,627,572,624,634,656,645
71.8879,582,621,624,597,614,588,641,611,615,612,564,611,641
71.9484,631,634,584,620,675,601,659,653,587,622,572,621,630
72.0089,607,561,603,630,588,618,666,652,609,604,611,623,596
72.0694,568,564,605,612,632,619,651,621,637,628,667,604,628
72.13,566,586,591,639,613,609,614,610,642,610,675,601,647
72.1905,588,607,618,628,599,654,657,618,597,606,614,650,562
72.251,563,606,580,571,630,610,570,627,616,635,591,599,645
72.3115,632,614,611,638,607,663,707,604,586,587,617,626,616
72.372,581,583,647,658,586,639,644,655,639,624,600,609,601
72.4325,605,589,627,605,606,608,638,627,650,607,590,624,611
72.493,598,597,623,636,650,637,649,655,569,633,612,599,634
72.5535,599,577,665,634,618,618,617,659,624,624,628,640,632
72.614,582,626,598,543,648,621,620,628,622,654,643,664,607
72.6745,585,593,615,627,639,613,595,634,588,614,637,595,641
72.735,650,639,587,590,614,630,654,612,635,652,588,630,637
72.7955,591,642,622,614,622,573,591,631,612,616,627,609,629
72.856,607,601,627,647,675,617,654,655,672,625,589,648,665
72.9165,612,596,625,639,636,575,632,638,654,655,609,635,602
72.977,648,591,596,672,587,643,624,597,629,642,644,624,628
73.0375,645,598,616,630,655,619,646,628,652,595,607,625,626
73.098,632,658,640,654,673,621,647,628,584,650,608,614,609
73.1585,639,682,639,667,651,651,634,618,657,647,607,648,619
73.2191,646,647,626,664,695,652,621,611,593,656,659,634,649
73.2796,680,653,647,696,646,618,630,641,623,642,632,635,635
73.3401,676,640,733,682,706,663,599,635,649,658,638,666,664
73.4006,700,686,684,679,667,633,643,653,594,617,637,691,691
73.4611,668,695,681,716,679,646,696,654,661,651,629,608,651
73.5216,721,759,733,692,690,632,704,686,684,599,664,676,649
73.5821,778,789,752,770,702,713,669,662,690,629,665,697,669
73.6426,800,800,821,758,789,661,718,742,718,726,701,721,667
73.7031,884,866,863,824,807,780,777,849,784,753,782,782,792
73.7636,965,952,928,880,938,914,870,811,830,835,853,826,817
73.8241,1020,1022,1049,983,953,886,854,847,830,870,863,831,829
73.8846,1089,1126,1108,1032,994,924,972,914,917,873,929,952,947
73.9451,1189,1193,1220,1203,1130,1129,1139,1079,1101,1017,1074,1105,1033
74.0056,1332,1378,1352,1477,1591,1711,1706,1691,1576,1642,1602,1660,1594
74.0661,1411,1461,1592,2270,3800,4949,4781,4920,5002,4992,5039,5047,4929
74.1266,1512,1517,1730,3034,6679,10831,12189,12469,12360,12366,12577,12639,12444
74.1871,1391,1426,1424,1741,2397,3096,3599,3606,3520,3538,3654,3640,3477
74.2476,1422,1377,1449,1586,1826,2144,2181,2207,2124,2195,2185,2268,2100
74.3082,1294,1326,1393,2121,3687,5024,5067,5251,5291,5150,5388,5439,5193
74.3687,1144,1221,1268,1652,2626,3881,4490,4517,4529,4465,4517,4557,4469
74.4292,1086,1143,1121,1176,1275,1399,1538,1493,1490,1488,1485,1550,1463
74.4897,969,1019,1049,1012,972,959,972,959,952,1009,956,961,960
74.5502,915,868,885,938,889,858,844,880,847,805,797,841,821
74.6107,880,825,859,851,819,779,764,807,778,756,752,718,782
74.6712,775,777,853,820,780,746,772,737,777,736,688,695,731
74.7317,756,710,767,737,739,717,685,704,702,696,666,705,699
74.7922,757,734,702,695,689,688,681,704,663,659,699,656,687
74.8527,701,734,728,691,697,701,684,647,671,683,677,667,657
74.9132,689,708,690,709,679,662,726,686,632,628,689,667,683
74.9737,667,693,645,680,671,678,641,630,725,638,670,681,607
75.0342,684,642,641,594,660,625,654,621,632,631,655,606,662
75.0947,626,633,663,690,654,628,650,627,654,673,603,656,677
75.1552,624,625,645,655,623,648,655,635,703,640,632,629,588
75.2157,616,620,620,644,591,647,681,668,668,657,647,663,617
75.2762,673,582,686,663,662,663,642,654,607,635,631,642,642
75.3367,640,664,668,628,608,647,643,638,608,637,633,689,608
75.3973,619,590,658,618,612,629,599,660,583,674,601,636,652
75.4578,648,571,659,680,611,682,652,627,641,582,569,653,657
75.5183,612,630,643,630,626,624,642,625,574,663,617,659,615
75.5788,585,617,630,635,633,624,617,631,612,644,641,679,621
75.6393,593,641,578,646,597,643,604,651,642,620,629,646,614
75.6998,648,612,600,606,622,640,586,619,626,616,630,642,608
75.7603,592,593,636,651,578,635,605,614,599,577,625,599,611
75.8208,616,607,604,634,667,653,623,615,653,602,587,593,642
75.8813,595,598,597,600,630,609,598,617,613,651,630,610,581
75.9418,585,559,624,578,640,615,611,606,583,619,613,668,614
76.0023,597,615,623,583,635,603,631,646,596,629,626,599,630
76.0628,617,602,640,608,596,645,592,589,619,637,630,644,605
76.1233,581,627,559,611,617,599,630,574,605,636,578,596,593
76.1838,601,576,556,601,629,653,662,615,598,623,605,637,623
76.2443,572,625,615,569,652,605,572,594,606,638,644,597,589
76.3048,618,567,620,613,568,612,621,623,621,598,614,639,605
76.3653,581,595,599,592,619,649,624,624,637,621,592,612,622
76.4258,568,622,621,639,599,630,623,613,630,634,588,620,603
76.4864,599,633,639,617,636,600,641,618,612,613,625,596,616
76.5469,579,605,601,613,584,612,637,625,621,625,632,640,581
76.6074,619,575,577,622,624,575,601,595,607,613,615,626,588
76.6679,597,594,616,629,631,592,637,589,642,596,601,575,608
76.7284,618,610,609,599,583,582,636,603,644,612,547,625,591
76.7889,615,616,671,624,629,594,634,637,634,583,620,617,623
76.8494,614,616,623,625,602,594,608,597,638,598,600,612,636
76.9099,635,601,650,655,575,614,614,610,586,592,594,606,605
76.9704,606,590,574,611,579,566,611,653,585,608,611,608,569
77.0309,569,618,627,623,610,582,635,595,595,605,627,586,619
77.0914,577,643,611,636,598,627,644,661,645,628,610,613,589
77.1519,576,603,593,586,589,584,628,659,643,606,594,588,571
77.2124,576,600,605,532,610,602,602,576,625,611,592,609,604
77.2729,607,574,599,605,616,590,619,590,613,590,609,611,571
77.3334,614,601,591,608,633,627,631,588,623,612,631,570,616
77.3939,595,627,609,638,585,613,574,592,621,638,569,630,636
77.4544,583,627,579,602,578,653,608,602,570,611,618,651,630
77.5149,629,562,564,615,580,611,612,576,624,633,618,608,622
77.5755,597,537,607,597,624,628,620,636,600,624,626,614,609
77.636,591,593,563,582,605,629,595,620,616,590,599,584,604
77.6965,603,603,602,593,600,653,632,609,597,594,611,629,587
77.757,600,636,606,587,615,615,612,644,562,560,613,580,613
77.8175,627,621,588,597,601,627,609,592,619,619,601,598,611
77.878,594,594,569,612,574,590,586,658,582,550,585,617,568
77.9385,545,617,597,569,640,602,608,594,610,614,572,607,601
77.999,587,612,589,644,580,600,589,584,617,624,596,584,603