File: outputs/results/xrd_merged/xrd_0ml.csv
2Theta,0h,2h,4h,6h,8h,10h,12h,14h,16h,18h,20h,22h,24h
40.0015,645,659,654,653,668,670,624,651,637,634,634,610,651
40.062,659,655,638,701,631,670,640,627,633,640,676,624,607
40.1225,663,634,605,637,651,615,645,648,650,667,589,649,602
40.183,640,629,684,677,684,617,618,635,652,658,624,577,651
40.2435,666,676,623,684,666,675,668,652,650,652,629,608,630
40.304,653,648,657,688,635,631,623,632,564,617,626,644,652
40.3645,675,696,645,673,624,644,657,651,650,621,635,655,647
40.425,678,620,663,668,619,610,643,661,641,634,626,628,660
40.4855,669,639,683,653,634,624,613,640,667,617,630,656,666
40.546,616,657,626,624,670,645,621,621,633,661,590,632,623
40.6065,656,652,641,631,625,623,614,609,633,653,627,684,629
40.6671,669,643,634,673,600,668,650,658,633,653,669,629,597
40.7276,653,696,640,662,649,648,655,606,647,630,658,611,617
40.7881,674,685,650,656,679,602,614,642,670,693,664,635,629
40.8486,648,681,677,631,658,659,624,621,610,610,673,622,622
40.9091,673,686,696,662,676,650,608,678,685,638,678,640,657
40.9696,640,703,734,710,737,645,680,619,645,648,605,580,668
41.0301,686,694,686,661,681,637,630,629,659,630,606,659,643
41.0906,718,685,659,685,707,685,675,629,626,615,653,653,640
41.1511,695,660,681,671,671,627,626,651,603,642,589,632,665
41.2116,679,690,700,670,658,635,626,627,690,631,624,587,620
41.2721,720,671,692,709,669,670,618,642,651,613,645,615,676
41.3326,708,682,672,725,652,674,648,627,644,674,615,636,639
41.3931,741,700,707,713,687,625,579,630,644,637,649,630,632
41.4536,687,704,701,714,670,707,628,650,635,659,640,636,654
41.5141,706,689,742,694,717,662,676,614,664,667,650,633,628
41.5746,748,726,745,722,688,694,692,649,631,669,659,613,636
41.6351,738,686,750,722,620,677,669,645,624,706,653,675,623
41.6956,740,801,743,695,675,639,626,631,678,657,618,643,642
41.7562,689,776,700,714,725,718,646,624,639,668,637,641,655
41.8167,755,795,737,755,760,754,762,740,703,707,700,687,693
41.8772,786,797,793,832,754,750,780,749,751,749,756,713,724
41.9377,821,760,811,825,803,746,764,762,746,735,795,762,723
41.9982,848,828,802,786,749,769,797,790,780,783,789,775,739
42.0587,781,804,827,823,852,773,761,750,755,785,760,746,801
42.1192,856,826,834,849,821,789,799,761,756,812,724,759,754
42.1797,848,855,857,869,777,780,828,810,750,747,825,780,727
42.2402,904,881,818,906,817,770,769,814,790,726,777,797,794
42.3007,875,940,892,886,881,792,750,818,801,776,806,797,792
42.3612,866,951,899,885,874,816,845,779,757,762,778,779,784
42.4217,917,921,917,946,876,804,821,831,780,802,791,752,790
42.4822,962,897,926,966,888,859,819,778,823,804,784,742,797
42.5427,967,966,976,943,926,907,789,784,783,817,745,761,822
42.6032,1013,985,986,989,926,874,815,857,810,823,767,784,759
42.6637,1107,1096,1070,1036,951,883,879,849,805,760,773,785,814
42.7242,1219,1152,1133,1147,1019,908,803,831,803,834,776,780,819
42.7847,1266,1224,1276,1202,1098,943,867,845,827,795,847,847,820
42.8453,1415,1372,1417,1318,1214,981,919,890,887,954,840,857,857
42.9058,1697,1669,1532,1487,1295,1097,950,1005,971,1009,969,940,1050
42.9663,1954,1912,1732,1697,1535,1346,1155,1072,1076,1113,1087,1175,1102
43.0268,2388,2304,2231,2208,1880,1602,1334,1325,1277,1241,1260,1220,1282
43.0873,3047,2932,2799,2702,2395,1828,1580,1434,1429,1418,1416,1418,1462
43.1478,4273,4201,4083,3844,3294,2475,2021,1907,1875,1893,1888,1900,1893
43.2083,6509,6399,6045,5634,4727,3314,2557,2410,2373,2284,2171,2214,2262
43.2688,10132,10131,9845,9341,7723,5701,4421,3887,3874,3947,3794,3817,3929
43.3293,14180,14819,15191,16425,20293,26374,25728,24050,25717,25586,24239,25208,25109
43.3898,15225,15749,16153,17722,23121,30361,39577,43546,41345,41987,42512,41346,41804
43.4503,13468,13526,14076,15040,17305,20575,20538,19818,20860,20355,19982,20635,20435
43.5108,10081,9934,10410,10580,12019,12874,15998,17708,16262,16627,17169,16585,16964
43.5713,6761,6610,6848,6557,5517,3893,3257,3204,2970,3014,2992,3028,2928
43.6318,4627,4590,4538,4256,3739,2615,2135,2048,1973,1943,1974,1897,1938
43.6923,3262,3220,3153,3068,2623,1887,1634,1556,1471,1470,1441,1487,1475
43.7528,2403,2417,2472,2366,1969,1532,1297,1199,1239,1206,1174,1239,1230
43.8133,2024,1960,1959,1886,1662,1257,1141,1035,1026,997,1089,990,1076
43.8738,1680,1677,1645,1593,1460,1155,969,949,948,891,903,914,909
43.9344,1474,1468,1452,1387,1191,1019,984,892,925,894,908,902,941
43.9949,1287,1288,1288,1305,1156,967,856,863,866,899,833,885,844
44.0554,1200,1248,1159,1188,1106,917,810,852,849,815,870,844,767
44.1159,1126,1148,1155,1115,1030,927,802,831,807,802,761,800,839
44.1764,1065,1074,1064,1053,986,914,840,829,781,774,817,758,777
44.2369,1052,1018,1005,989,929,811,789,820,778,829,782,785,772
44.2974,974,977,992,938,893,810,809,800,780,832,764,804,764
44.3579,954,979,932,934,938,827,738,786,781,752,773,745,754
44.4184,945,924,1021,923,879,808,778,734,751,735,788,765,725
44.4789,901,994,903,909,837,758,685,804,728,775,769,758,789
44.5394,929,915,923,891,845,811,749,766,738,772,737,745,730
44.5999,828,855,928,948,845,747,740,731,785,784,748,749,721
44.6604,890,846,873,801,833,763,748,750,737,709,709,747,766
44.7209,829,865,894,864,783,794,800,741,775,722,707,766,729
44.7814,809,799,811,809,796,782,741,701,743,724,765,714,722
44.8419,835,863,843,797,776,756,723,724,775,762,726,718,725
44.9024,827,864,853,816,788,720,788,784,743,766,720,753,734
44.9629,825,815,773,769,840,747,754,757,719,740,732,704,750
45.0235,860,872,795,838,780,731,711,789,716,774,730,703,697
45.084,847,776,786,791,749,753,683,744,730,682,751,764,722
45.1445,771,812,719,782,778,728,744,739,708,702,726,740,711
45.205,846,840,804,777,786,731,735,729,745,751,747,713,748
45.2655,778,821,796,799,742,765,709,726,713,720,743,680,689
45.326,804,786,820,790,785,746,760,763,752,790,706,744,676
45.3865,787,778,799,780,744,708,714,790,700,775,709,782,770
45.447,795,780,767,775,767,714,689,755,747,710,693,724,745
45.5075,784,753,803,791,737,743,735,725,694,688,743,730,670
45.568,764,777,792,738,750,740,794,714,734,718,757,677,660
45.6285,789,724,787,777,773,721,719,688,704,702,772,731,705
45.689,745,804,822,797,746,650,744,714,679,730,669,712,751
45.7495,745,815,753,759,747,718,766,672,689,686,724,702,695
45.81,758,703,764,730,711,742,752,725,729,668,716,668,692
45.8705,726,755,739,768,743,770,721,764,695,710,724,727,704
45.931,767,727,732,684,728,715,709,707,704,707,674,669,670
45.9915,747,782,764,755,779,706,682,674,703,701,694,695,684
46.052,758,767,710,705,754,689,715,738,697,689,716,716,648
46.1126,731,748,705,738,728,759,707,669,706,668,684,713,665
46.1731,742,787,734,731,703,716,695,685,722,757,691,688,729
46.2336,733,721,752,732,727,689,723,676,668,728,701,685,685
46.2941,764,771,664,746,734,697,699,718,709,711,725,687,702
46.3546,784,771,702,737,742,695,692,730,742,699,630,684,674
46.4151,728,717,751,687,728,682,701,711,678,690,709,688,686
46.4756,754,716,731,702,723,712,703,651,692,657,683,679,702
46.5361,747,784,750,704,706,732,662,690,698,732,728,713,700
46.5966,737,780,691,741,645,704,675,711,730,722,703,705,708
46.6571,779,749,682,742,730,674,673,683,713,673,739,699,685
46.7176,714,720,697,716,683,726,688,708,686,723,697,684,676
46.7781,747,736,693,729,736,724,707,709,727,647,663,648,693
46.8386,732,706,737,653,716,729,705,712,673,712,685,705,712
46.8991,691,738,713,742,711,676,706,667,693,729,673,727,682
46.9596,759,727,691,744,674,710,675,688,703,672,688,696,650
47.0201,754,747,700,756,713,701,662,689,712,722,720,680,660
47.0806,707,714,737,736,717,690,703,679,670,669,700,682,708
47.1411,715,748,749,688,723,708,643,657,687,656,640,697,704
47.2017,750,751,743,732,722,735,727,690,699,717,663,662,665
47.2622,727,690,764,698,714,704,701,699,740,639,681,692,695
47.3227,704,695,756,690,703,678,706,681,666,713,736,689,746
47.3832,697,703,701,705,717,751,659,685,702,672,665,695,670
47.4437,767,720,721,690,667,691,685,676,725,682,706,729,661
47.5042,721,772,689,677,705,704,695,684,687,680,661,707,693
47.5647,722,715,726,676,725,699,686,691,670,705,668,699,729
47.6252,685,672,725,757,692,707,700,706,658,686,654,656,666
47.6857,721,704,754,732,674,639,671,672,670,685,683,716,668
47.7462,736,710,702,654,691,686,657,716,743,681,676,675,670
47.8067,734,711,694,697,705,711,689,702,662,638,657,708,684
47.8672,736,726,688,732,740,737,694,651,630,659,659,640,691
47.9277,754,699,726,714,699,705,669,735,635,652,658,683,706
47.9882,756,715,779,712,731,688,680,707,662,644,687,684,679
48.0487,728,727,727,691,698,720,696,642,620,658,625,717,681
48.1092,735,708,700,689,684,715,700,655,701,699,720,696,712
48.1697,767,725,721,734,747,669,657,670,707,648,701,669,655
48.2302,745,684,726,728,675,689,679,662,665,654,671,679,653
48.2908,754,756,775,690,740,661,656,648,700,703,646,646,678
48.3513,753,738,711,724,701,701,707,639,703,662,711,703,657
48.4118,742,722,739,696,713,696,694,709,685,722,678,678,695
48.4723,730,768,778,749,682,698,651,669,693,690,651,673,689
48.5328,732,733,776,713,717,693,683,659,705,724,715,739,668
48.5933,756,767,736,746,718,674,680,668,673,678,687,660,706
48.6538,753,789,764,695,696,711,662,686,680,710,715,662,762
48.7143,759,749,760,771,694,731,720,712,707,656,714,678,738
48.7748,766,726,787,770,716,706,652,710,743,667,649,680,730
48.8353,784,806,776,776,744,756,688,694,666,692,701,717,723
48.8958,832,780,769,799,757,701,664,727,711,750,661,692,686
48.9563,761,784,741,794,731,705,644,689,683,663,687,729,718
49.0168,814,814,760,739,726,740,740,724,734,690,714,744,708
49.0773,818,737,747,825,769,754,702,700,682,672,715,689,691
49.1378,759,808,753,788,734,723,709,685,704,678,710,692,683
49.1983,812,822,783,764,783,689,683,728,708,668,647,701,710
49.2588,820,814,840,762,779,741,708,673,648,727,669,719,714
49.3193,826,823,849,827,749,712,701,719,716,632,652,716,713
49.3799,865,861,891,816,778,775,729,721,708,692,727,746,694
49.4404,844,850,892,831,771,776,773,722,737,690,647,679,704
49.5009,860,926,827,840,753,765,716,729,693,723,707,721,676
49.5614,910,924,874,832,840,743,741,690,721,716,745,716,703
49.6219,909,920,963,868,845,813,690,734,744,747,694,719,699
49.6824,988,1009,969,897,889,776,716,676,701,697,725,744,699
49.7429,1042,966,1052,947,872,792,728,691,733,720,701,703,713
49.8034,1126,1085,1044,1040,919,770,716,726,745,751,708,708,702
49.8639,1150,1119,1101,1098,1011,844,758,732,761,727,776,705,744
49.9244,1265,1262,1245,1130,1045,859,753,720,764,748,732,721,794
49.9849,1331,1327,1317,1244,1180,899,795,786,759,764,752,729,755
50.0454,1537,1491,1473,1449,1243,968,852,810,777,816,831,792,810
50.1059,1779,1768,1699,1653,1349,1057,875,843,843,849,899,840,821
50.1664,2035,2013,1992,1867,1565,1137,982,918,896,914,897,962,872
50.2269,2341,2365,2358,2147,1851,1281,1136,1059,1057,1080,1003,1028,980
50.2874,2794,2758,2770,2602,2110,1650,1268,1181,1163,1176,1175,1143,1119
50.3479,3207,3320,3318,2972,2564,1902,1555,1408,1531,1415,1374,1457,1407
50.4084,3827,3744,3732,3630,3422,3186,2673,2566,2659,2687,2527,2681,2647
50.469,4001,4007,4073,4994,7189,9873,10095,10169,10450,10422,9960,10360,10408
50.5295,3929,4010,4057,4517,5729,7496,9382,10222,9969,10141,10143,9613,9988
50.59,3674,3805,3879,4076,4662,5369,5450,5417,5758,5527,5393,5479,5548
50.6505,3299,3385,3459,3650,4313,5607,6724,6992,6802,7041,7121,6833,6878
50.711,2818,2915,2943,2743,2588,2191,2048,2200,2122,2119,2170,2095,2070
50.7715,2425,2408,2432,2287,2060,1490,1362,1329,1206,1259,1249,1265,1209
50.832,2057,2016,2086,1938,1580,1237,1190,1045,1017,1011,1057,1058,975
50.8925,1721,1716,1695,1608,1432,1085,913,965,861,877,903,862,930
50.953,1562,1510,1457,1474,1269,1020,876,840,800,813,809,821,766
51.0135,1367,1350,1350,1260,1058,897,847,834,772,782,733,769,745
51.074,1215,1165,1187,1144,1080,884,775,768,746,742,746,745,767
51.1345,1067,1104,1057,998,966,783,741,743,732,738,719,744,707
51.195,1084,983,1037,938,928,801,743,689,740,759,710,742,739
51.2555,959,950,900,879,831,784,730,666,722,737,732,680,670
51.316,890,909,933,900,820,723,698,677,643,737,731,731,700
51.3765,884,842,929,834,774,756,724,674,674,714,717,703,704
51.437,875,848,838,808,754,717,779,709,683,684,647,678,690
51.4975,830,825,791,764,751,733,693,693,688,707,680,734,704
51.5581,823,800,791,739,761,703,727,668,676,712,664,649,701
51.6186,774,771,768,793,723,695,667,685,664,699,665,659,696
51.6791,755,758,761,763,716,700,698,687,639,694,760,686,724
51.7396,801,731,717,704,723,692,689,706,692,681,640,677,663
51.8001,722,750,741,685,698,680,689,655,662,639,682,688,682
51.8606,716,742,767,751,720,691,660,693,687,613,644,651,684
51.9211,737,754,767,746,696,677,688,693,681,648,640,669,708
51.9816,751,705,727,747,655,643,688,655,645,681,676,622,663
52.0421,794,680,721,713,747,697,668,707,673,692,678,685,665
52.1026,750,669,708,658,733,679,663,668,694,635,628,711,697
52.1631,677,685,609,697,667,634,655,709,641,642,606,640,661
52.2236,732,677,719,658,664,655,659,701,638,710,691,652,681
52.2841,715,701,739,650,675,648,680,691,674,683,668,638,627
52.3446,677,686,699,677,715,661,633,688,680,642,650,655,661
52.4051,681,681,641,661,663,656,700,638,683,643,631,640,676
52.4656,689,707,691,703,665,675,628,667,664,659,632,685,664
52.5261,722,701,662,658,685,621,611,689,648,640,690,655,661
52.5866,663,711,682,716,643,666,695,669,688,667,622,660,635
52.6472,673,702,736,672,673,637,660,649,694,638,695,677,651
52.7077,680,659,710,680,631,649,682,662,648,652,638,667,679
52.7682,727,646,649,631,659,650,658,707,677,629,647,625,710
52.8287,725,688,695,633,622,688,625,646,707,635,657,640,677
52.8892,692,703,643,646,696,709,665,672,648,678,664,689,640
52.9497,688,675,694,675,664,652,634,675,683,679,669,627,664
53.0102,655,709,701,659,683,656,655,653,645,676,633,640,715
53.0707,708,662,680,693,623,686,662,676,663,691,625,623,611
53.1312,647,655,658,660,682,674,651,668,649,665,668,610,677
53.1917,690,670,673,650,623,711,676,655,682,665,606,684,657
53.2522,672,682,680,639,652,672,692,656,652,662,613,679,656
53.3127,638,693,682,654,674,647,677,639,677,641,631,619,660
53.3732,663,696,649,650,614,649,650,664,663,656,658,691,652
53.4337,694,654,646,693,658,670,674,647,686,654,654,651,626
53.4942,672,627,642,684,659,628,622,672,674,685,694,692,625
53.5547,645,688,669,657,697,643,666,653,705,664,607,644,644
53.6152,664,694,628,628,672,695,642,674,607,692,663,646,671
53.6757,641,622,631,629,715,621,665,658,659,656,625,677,679
53.7363,621,644,662,663,634,603,677,697,661,652,640,619,600
53.7968,646,634,628,649,615,595,649,679,664,631,632,624,651
53.8573,640,615,633,644,650,621,631,663,624,633,619,658,644
53.9178,668,682,658,646,684,643,639,631,654,662,604,646,660
53.9783,676,629,716,664,708,687,652,656,650,653,667,631,647
54.0388,664,636,644,592,647,632,652,677,637,647,636,679,650
54.0993,679,649,662,621,618,641,720,598,627,649,612,628,620
54.1598,668,622,656,657,667,623,649,650,618,620,604,644,666
54.2203,656,657,672,653,649,700,673,664,646,610,666,617,636
54.2808,639,650,641,633,645,706,637,614,638,691,644,633,657
54.3413,614,660,638,616,672,626,679,664,665,648,659,591,674
54.4018,660,608,635,639,634,699,676,664,647,647,618,632,680
54.4623,678,698,633,656,691,696,630,628,670,626,635,649,622
54.5228,662,647,685,650,578,653,660,667,645,593,641,563,615
54.5833,666,682,659,654,615,628,632,632,644,599,599,613,682
54.6438,637,648,650,625,605,625,615,679,619,650,647,653,681
54.7043,647,670,670,618,622,609,663,616,653,662,624,651,644
54.7648,658,640,656,646,629,623,612,648,596,648,680,608,591
54.8254,636,647,645,672,649,625,664,644,698,654,619,635,612
54.8859,643,663,636,647,638,646,641,639,633,629,614,615,661
54.9464,695,643,661,611,599,614,653,613,646,614,602,580,680
55.0069,639,645,591,692,656,686,612,647,652,613,655,651,616
55.0674,671,653,658,592,653,647,649,636,684,685,641,612,632
55.1279,629,688,663,668,629,659,641,654,627,652,576,663,647
55.1884,655,670,651,639,628,630,637,632,662,605,608,661,636
55.2489,681,641,638,620,663,663,662,672,637,648,625,668,708
55.3094,659,648,643,659,708,680,638,599,617,666,641,656,711
55.3699,645,656,630,632,628,686,622,683,634,610,661,629,624
55.4304,630,658,675,605,664,657,652,652,631,682,673,660,651
55.4909,630,650,650,641,642,623,618,647,649,658,606,634,641
55.5514,614,667,665,682,614,629,655,669,663,658,643,669,655
55.6119,640,639,637,701,610,622,686,633,626,664,599,620,630
55.6724,637,635,640,658,623,647,690,601,653,665,605,639,684
55.7329,680,653,676,626,684,661,626,635,683,612,636,616,620
55.7934,653,651,657,680,623,626,604,639,602,648,659,675,720
55.854,594,640,648,619,625,650,663,584,614,674,615,609,633
55.9145,644,637,651,658,623,628,644,614,667,656,596,616,671
55.975,632,622,605,639,707,643,654,651,637,603,609,632,675
56.0355,645,644,635,661,644,650,601,611,645,659,668,641,634
56.096,692,612,640,639,672,657,625,642,656,631,645,634,622
56.1565,613,663,618,655,635,623,651,630,630,673,681,586,641
56.217,627,660,612,646,619,659,613,656,636,626,607,609,637
56.2775,652,640,638,649,641,629,617,625,643,644,624,625,637
56.338,666,657,610,574,669,668,663,601,584,656,626,619,646
56.3985,604,642,630,589,626,651,621,635,632,646,590,623,622
56.459,652,626,662,642,620,627,657,623,633,626,655,618,632
56.5195,627,678,613,629,644,629,606,610,661,690,620,652,654
56.58,587,626,600,605,632,650,584,659,642,642,643,606,608
56.6405,635,666,628,660,673,610,647,619,652,632,675,635,645
56.701,677,650,636,587,602,611,632,603,611,647,622,667,652
56.7615,666,603,652,627,654,614,626,634,657,646,605,604,650
56.822,611,618,686,649,635,618,621,635,616,660,643,636,627
56.8825,666,654,659,649,598,629,583,605,640,639,619,658,567
56.9431,675,629,616,578,633,579,587,596,629,632,570,606,602
57.0036,596,611,652,661,658,571,588,626,624,604,593,664,681
57.0641,629,584,655,587,624,612,651,629,655,637,602,627,614
57.1246,636,590,640,626,658,591,617,642,628,639,647,676,627
57.1851,659,627,622,644,653,615,589,609,638,649,636,623,599
57.2456,678,653,637,642,627,648,597,612,661,633,664,603,638
57.3061,636,650,629,657,612,600,616,669,575,661,637,643,602
57.3666,610,641,613,642,658,616,644,637,597,625,646,656,676
57.4271,674,651,629,656,621,616,639,640,680,635,618,629,624
57.4876,650,605,633,616,634,592,632,630,616,631,608,625,635
57.5481,631,606,639,651,615,661,600,626,589,621,616,615,631
57.6086,640,640,622,664,633,637,617,626,643,660,619,599,583
57.6691,636,628,620,583,618,653,648,556,600,639,642,617,639
57.7296,619,615,615,612,616,646,630,593,628,571,600,651,609
57.7901,633,647,591,632,639,660,621,602,624,569,625,616,638
57.8506,654,677,640,624,676,631,605,566,627,644,602,641,603
57.9111,633,622,670,638,698,651,582,626,641,600,596,618,597
57.9716,673,645,617,623,626,637,635,609,608,615,659,623,647
58.0322,624,656,618,609,614,650,642,599,616,645,628,596,622
58.0927,639,651,597,604,625,667,595,639,621,594,585,624,620
58.1532,611,657,640,617,606,623,631,626,654,626,642,600,672
58.2137,656,628,610,644,647,610,638,633,582,643,649,636,637
58.2742,574,656,624,568,633,625,595,561,648,639,658,610,661
58.3347,647,621,602,610,616,609,667,653,646,647,622,666,631
58.3952,633,597,619,624,612,644,625,590,599,597,644,596,621
58.4557,660,670,630,607,636,634,625,596,622,590,629,654,617
58.5162,603,633,664,637,634,623,644,674,614,643,637,656,638
58.5767,641,613,625,616,606,650,605,604,670,633,663,648,613
58.6372,620,579,686,605,587,643,611,600,616,661,591,620,639
58.6977,653,631,655,616,626,687,655,640,646,552,580,606,670
58.7582,606,638,610,674,632,635,636,631,627,551,644,651,613
58.8187,610,632,627,651,648,657,604,616,629,599,638,631,629
58.8792,559,645,640,667,651,604,596,605,626,621,628,634,581
58.9397,673,617,600,604,685,649,617,611,609,622,641,620,572
59.0002,595,646,665,591,611,600,617,625,652,599,650,589,641
59.0607,626,671,642,644,632,610,613,640,632,650,671,625,604
59.1213,655,632,656,651,589,575,628,642,615,600,641,651,644
59.1818,614,614,576,633,623,639,603,612,607,607,612,606,601
59.2423,622,657,648,597,615,608,648,616,598,625,686,642,638
59.3028,632,581,606,632,614,636,596,658,617,642,627,611,595
59.3633,615,614,582,612,635,645,621,621,608,619,668,643,638
59.4238,594,664,654,654,593,579,652,632,613,614,629,589,600
59.4843,636,615,620,636,628,599,637,612,602,618,650,654,621
59.5448,605,654,615,564,609,595,636,613,595,637,613,668,618
59.6053,611,613,613,613,643,596,599,624,630,602,654,622,598
59.6658,651,633,619,631,639,678,608,613,612,576,623,622,580
59.7263,613,642,573,618,640,620,636,599,608,608,653,603,633
59.7868,663,651,621,642,627,666,594,559,596,623,619,612,637
59.8473,583,613,591,631,617,640,663,678,588,666,664,594,618
59.9078,611,628,654,594,631,604,595,608,627,680,610,596,616
59.9683,672,659,646,632,624,619,632,649,648,618,632,681,607
60.0288,630,664,654,579,593,642,624,646,598,631,663,645,640
60.0893,623,655,635,602,641,656,597,677,645,618,591,602,591
60.1498,620,629,649,599,618,612,632,600,593,619,643,660,679
60.2104,613,644,683,627,652,620,623,633,646,600,606,583,608
60.2709,606,586,657,615,608,619,618,598,603,657,589,624,587
60.3314,569,636,630,628,607,623,615,663,604,620,649,637,619
60.3919,644,643,618,632,647,708,623,609,620,626,606,606,640
60.4524,625,635,645,617,679,651,644,655,599,617,605,633,628
60.5129,636,587,620,606,660,594,623,644,628,629,629,620,627
60.5734,598,594,649,635,609,552,607,625,622,586,599,569,614
60.6339,659,639,633,601,657,616,601,619,672,630,592,648,617
60.6944,597,634,631,617,618,638,605,660,697,642,597,593,643
60.7549,618,648,639,601,621,581,592,610,617,655,618,616,642
60.8154,656,633,566,607,602,629,595,616,619,596,604,615,610
60.8759,606,633,619,599,635,619,646,638,605,605,619,614,606
60.9364,596,625,663,635,640,629,642,603,623,599,626,625,640
60.9969,624,586,656,612,623,573,641,598,627,619,622,652,608
61.0574,650,592,603,632,653,649,644,591,618,620,597,590,631
61.1179,602,607,658,621,655,594,621,618,677,658,601,619,577
61.1784,619,618,615,655,588,629,628,595,640,582,580,596,621
61.2389,620,662,611,647,640,610,619,618,613,619,624,644,565
61.2995,636,622,643,615,635,621,631,649,645,625,610,633,595
61.36,650,625,580,609,591,590,576,589,610,599,616,607,644
61.4205,662,654,624,602,606,587,648,618,632,630,653,613,615
61.481,605,571,639,662,610,640,671,620,579,680,609,608,613
61.5415,639,654,624,615,614,612,649,595,598,609,600,602,640
61.602,656,649,617,627,570,613,633,613,587,626,605,646,567
61.6625,587,625,617,611,580,620,589,618,576,643,627,641,629
61.723,618,647,644,601,599,631,606,628,612,575,631,613,611
61.7835,653,656,625,626,665,590,578,595,665,615,606,580,596
61.844,619,608,631,651,585,611,635,603,614,630,609,646,575
61.9045,602,625,606,578,633,633,648,580,663,626,622,615,601
61.965,617,604,588,656,628,597,633,652,596,597,599,610,605
62.0255,606,619,605,608,607,631,599,652,611,612,622,602,596
62.086,616,642,614,616,616,615,592,592,605,593,634,596,564
62.1465,627,615,599,605,602,624,598,599,593,624,657,643,649
62.207,608,612,619,652,604,626,607,629,658,639,636,656,627
62.2675,616,606,618,614,564,601,584,621,578,593,534,673,591
62.328,603,594,595,642,603,615,632,611,576,611,626,637,602
62.3886,615,642,594,647,636,655,622,622,614,588,659,592,660
62.4491,658,645,622,593,577,612,649,641,654,632,624,588,612
62.5096,573,619,626,618,602,608,644,615,599,622,587,599,630
62.5701,638,626,611,607,627,636,563,633,629,594,611,601,592
62.6306,648,615,642,650,629,628,644,631,650,642,589,606,629
62.6911,633,614,651,618,618,567,618,647,630,645,581,612,662
62.7516,616,592,652,629,618,603,638,630,591,630,618,629,624
62.8121,629,585,637,636,639,610,595,632,609,624,626,604,617
62.8726,598,563,576,595,658,641,632,645,572,637,593,679,624
62.9331,635,615,607,642,618,668,631,627,596,602,612,594,597
62.9936,597,571,617,647,608,651,635,576,657,602,594,662,621
63.0541,618,593,549,652,642,643,647,595,636,661,653,587,607
63.1146,627,637,606,642,626,595,626,585,623,619,655,615,600
63.1751,622,645,656,617,630,592,628,630,658,646,618,622,666
63.2356,613,589,590,640,667,613,673,566,668,608,614,596,626
63.2961,602,597,606,610,572,599,602,649,637,621,629,602,629
63.3566,588,642,623,597,593,573,611,609,636,599,608,593,627
63.4171,596,597,612,605,592,646,599,607,609,678,601,610,621
63.4777,588,631,618,614,568,624,624,571,605,633,614,617,608
63.5382,621,631,576,595,586,609,590,620,622,594,606,598,635
63.5987,607,625,615,583,604,624,617,654,654,674,659,578,589
63.6592,627,592,674,599,641,599,582,637,592,653,613,610,615
63.7197,618,629,657,582,581,639,619,633,603,617,611,598,569
63.7802,614,614,622,611,654,628,583,642,586,614,591,557,595
63.8407,606,609,616,637,602,647,596,600,595,577,606,582,605
63.9012,625,627,586,606,600,594,653,629,625,621,541,643,613
63.9617,633,643,611,618,623,645,640,607,626,591,634,589,613
64.0222,605,649,616,619,627,634,621,611,629,615,632,596,592
64.0827,645,636,595,617,639,607,629,613,628,586,635,653,649
64.1432,618,601,634,629,633,635,608,608,655,639,655,641,605
64.2037,566,578,644,616,579,646,583,633,614,613,633,599,622
64.2642,662,620,596,613,621,598,630,652,629,651,569,603,635
64.3247,570,592,599,605,561,676,666,666,606,617,635,599,546
64.3852,637,650,620,574,657,608,638,606,624,591,633,630,617
64.4457,587,621,632,622,595,640,614,626,617,636,616,594,629
64.5062,610,649,641,617,605,615,601,619,640,606,595,626,561
64.5668,608,583,615,586,602,602,664,645,600,635,635,627,653
64.6273,549,629,599,633,580,636,652,595,672,660,608,566,583
64.6878,595,624,577,633,635,617,575,630,645,655,579,597,575
64.7483,641,602,595,621,621,653,607,604,603,599,645,620,583
64.8088,600,622,599,627,611,636,600,585,649,621,609,629,647
64.8693,649,617,626,651,631,634,633,616,559,628,639,618,596
64.9298,626,619,617,608,615,585,631,580,641,594,596,604,605
64.9903,613,608,650,608,599,619,613,657,594,604,594,597,642
65.0508,623,629,637,652,604,625,603,619,631,567,619,611,613
65.1113,608,534,629,631,588,642,583,594,634,609,603,662,663
65.1718,583,576,588,591,584,622,606,601,637,605,608,621,613
65.2323,678,635,623,613,622,629,612,627,584,629,579,606,613
65.2928,561,604,650,599,586,588,624,634,584,587,625,625,625
65.3533,585,631,611,633,626,610,635,600,630,604,618,609,618
65.4138,607,617,618,630,615,592,599,634,588,637,619,610,570
65.4743,589,599,647,621,654,638,590,619,553,651,599,585,625
65.5348,572,576,632,595,606,607,593,626,663,623,619,594,554
65.5953,630,597,612,586,592,583,605,593,567,598,632,586,595
65.6559,620,592,588,590,611,590,635,613,594,612,624,573,620
65.7164,617,629,585,631,596,612,588,653,655,606,595,631,631
65.7769,614,618,661,640,621,617,652,632,640,604,636,617,617
65.8374,549,586,624,631,642,601,621,627,588,612,601,606,635
65.8979,607,649,618,566,605,588,575,606,614,597,617,641,616
65.9584,598,620,623,614,650,660,649,619,596,584,643,609,614
66.0189,608,614,610,559,634,608,633,617,632,672,638,609,635
66.0794,580,610,613,624,594,597,617,623,604,646,670,649,644
66.1399,627,575,642,635,601,648,625,640,634,597,638,579,642
66.2004,623,587,609,602,595,607,622,635,617,639,580,621,600
66.2609,639,592,604,636,603,627,599,645,610,587,567,611,593
66.3214,580,655,634,636,615,612,613,627,632,598,606,577,588
66.3819,587,647,593,615,653,599,658,610,615,623,626,615,567
66.4424,606,594,592,561,615,605,656,639,595,617,619,627,624
66.5029,598,620,608,625,623,626,645,599,610,592,604,619,591
66.5634,589,612,624,630,616,645,631,617,646,640,639,610,590
66.6239,645,616,585,623,602,597,611,607,601,661,607,634,605
66.6844,608,613,596,580,605,582,645,628,583,633,604,583,623
66.745,618,617,643,625,636,604,627,668,647,574,637,619,618
66.8055,617,615,590,594,631,609,614,604,595,588,623,649,594
66.866,601,607,599,612,601,611,566,655,579,578,608,602,593
66.9265,577,612,611,574,630,639,600,610,612,610,609,623,585
66.987,631,623,597,581,611,601,604,582,652,598,595,651,617
67.0475,563,621,577,596,563,626,593,633,605,638,611,644,637
67.108,597,643,589,630,594,580,628,593,623,595,584,624,590
67.1685,616,611,618,615,614,621,616,609,616,631,655,611,593
67.229,624,621,633,623,594,646,600,603,613,591,589,608,588
67.2895,612,618,616,590,611,630,590,563,591,590,606,624,609
67.35,661,590,622,642,656,629,592,635,588,640,603,596,613
67.4105,618,572,634,605,583,601,611,622,637,608,602,617,584
67.471,593,579,602,660,582,598,640,621,624,586,635,621,631
67.5315,612,582,608,608,602,552,609,641,609,593,581,582,605
67.592,590,631,564,620,581,621,585,636,608,600,594,602,562
67.6525,600,579,600,593,617,602,575,632,600,566,648,563,580
67.713,622,666,621,584,614,570,608,645,621,626,626,608,573
67.7735,571,567,573,620,613,597,588,569,606,587,551,627,622
67.8341,618,621,606,585,572,627,593,607,652,575,588,575,618
67.8946,603,616,617,612,581,618,652,596,636,601,606,589,614
67.9551,597,630,651,600,602,584,593,601,606,611,621,656,607
68.0156,625,640,604,619,605,605,595,577,598,640,615,604,654
68.0761,586,636,582,591,607,629,637,611,591,637,556,613,601
68.1366,623,579,598,619,607,653,635,589,619,601,603,623,621
68.1971,665,646,625,595,634,646,590,585,644,583,644,647,582
68.2576,604,614,646,603,614,556,610,626,595,625,600,628,552
68.3181,629,608,653,640,613,622,580,594,629,598,626,617,575
68.3786,617,612,655,622,604,615,612,604,628,608,598,575,590
68.4391,602,656,587,573,578,651,593,603,581,664,598,607,634
68.4996,616,620,636,629,579,627,632,617,621,597,603,605,648
68.5601,594,637,652,601,579,616,621,595,619,606,638,606,589
68.6206,636,582,590,567,589,639,600,596,565,607,593,593,625
68.6811,569,602,665,561,611,609,604,583,587,634,644,587,577
68.7416,623,617,602,607,598,627,636,600,606,611,590,589,539
68.8021,582,633,581,598,614,612,593,602,597,629,559,603,581
68.8626,577,612,668,623,609,581,601,601,622,590,616,623,578
68.9232,575,587,610,633,605,661,611,648,604,636,594,624,613
68.9837,602,606,656,606,611,620,625,602,560,646,625,622,614
69.0442,635,616,627,633,622,671,583,602,632,603,608,593,604
69.1047,606,621,587,613,595,621,609,627,650,581,639,642,626
69.1652,610,576,628,579,598,589,630,644,574,603,615,635,624
69.2257,608,614,614,619,640,601,590,634,633,618,603,573,644
69.2862,611,591,613,610,651,617,594,597,568,587,593,635,597
69.3467,619,581,598,586,592,629,603,624,594,634,604,590,627
69.4072,599,599,653,622,558,647,602,608,649,614,628,610,637
69.4677,597,565,600,589,566,634,647,635,631,585,568,578,640
69.5282,590,659,589,608,585,590,628,618,604,596,576,607,598
69.5887,626,616,555,619,607,594,608,603,699,648,605,580,621
69.6492,602,622,630,586,561,625,588,628,584,609,620,610,618
69.7097,553,594,624,569,590,610,572,587,576,576,574,589,579
69.7702,611,639,602,631,602,606,584,584,631,564,622,631,583
69.8307,599,607,570,583,594,596,616,601,606,606,569,614,631
69.8912,608,611,608,608,546,572,627,622,592,644,615,585,616
69.9517,596,593,641,585,623,611,566,580,641,562,587,608,604
70.0123,589,648,609,585,619,638,632,633,610,627,627,649,596
70.0728,601,590,616,613,590,643,617,601,635,606,656,605,596
70.1333,562,649,641,649,627,643,610,641,619,587,637,590,644
70.1938,572,647,589,622,606,609,597,628,596,620,633,583,593
70.2543,591,619,601,578,604,601,559,599,603,594,597,636,593
70.3148,608,595,610,596,608,595,556,627,592,652,600,587,591
70.3753,615,655,619,593,615,607,584,645,589,636,604,551,575
70.4358,606,590,630,629,608,643,610,628,638,610,612,589,625
70.4963,602,635,597,640,618,611,622,556,663,610,593,597,609
70.5568,636,629,597,623,669,632,633,633,624,589,610,630,610
70.6173,566,577,637,593,609,624,622,622,597,623,611,636,662
70.6778,561,618,623,607,575,628,649,596,642,624,623,618,608
70.7383,590,622,602,615,606,598,587,567,614,575,568,598,626
70.7988,574,613,593,633,580,611,601,609,614,593,561,607,617
70.8593,623,617,587,611,618,630,596,606,576,602,586,537,631
70.9198,609,609,602,591,601,596,608,588,575,587,615,621,615
70.9803,632,600,665,599,608,635,630,597,659,591,599,637,584
71.0409,631,593,600,589,619,583,624,641,633,607,595,602,580
71.1014,574,600,643,602,621,604,648,606,641,610,592,588,642
71.1619,644,619,609,571,591,595,610,633,592,597,620,619,597
71.2224,595,612,575,602,583,618,628,656,622,633,584,626,556
71.2829,618,637,620,629,621,646,600,619,622,658,687,585,607
71.3434,572,642,577,595,639,629,647,583,642,585,651,618,626
71.4039,589,651,622,605,605,626,630,594,651,633,593,614,644
71.4644,601,583,603,655,696,624,634,688,660,639,640,631,628
71.5249,607,609,639,605,644,609,643,616,624,639,634,660,678
71.5854,644,607,635,588,594,608,656,632,606,642,634,631,613
71.6459,603,616,622,595,649,616,658,627,615,624,667,602,618
71.7064,596,644,638,614,610,628,641,665,678,617,603,635,609
71.7669,642,668,636,580,640,635,625,677,615,646,623,657,625
71.8274,614,607,628,593,655,631,637,669,662,662,634,625,636
71.8879,615,624,625,578,562,634,641,615,639,670,622,610,609
71.9484,644,628,631,663,620,624,611,620,630,633,636,600,610
72.0089,644,661,658,650,636,597,590,617,629,637,565,663,661
72.0694,632,590,632,583,599,614,641,621,632,613,585,627,644
72.13,617,664,656,597,624,610,585,669,619,663,590,644,675
72.1905,624,589,601,582,688,645,661,660,611,637,606,634,657
72.251,670,603,612,585,653,641,620,677,615,633,622,653,616
72.3115,643,602,634,621,637,624,622,607,615,658,633,612,644
72.372,600,623,608,594,620,623,648,618,581,648,614,636,632
72.4325,645,680,626,665,650,685,654,659,631,645,652,629,659
72.493,622,635,632,605,617,620,674,632,606,641,677,613,640
72.5535,624,657,657,600,631,631,600,651,671,604,626,669,659
72.614,648,594,654,634,639,605,643,593,646,698,620,628,642
72.6745,683,627,691,584,656,658,668,639,653,623,623,643,580
72.735,607,635,597,580,695,612,666,651,633,673,660,682,610
72.7955,597,632,649,623,617,612,633,638,613,612,662,606,635
72.856,646,615,616,623,602,636,641,663,617,623,627,608,666
72.9165,650,648,665,654,663,601,635,632,667,696,646,597,619
72.977,591,648,685,695,640,665,631,629,639,636,646,641,665
73.0375,650,641,618,674,611,671,617,648,644,605,652,605,636
73.098,659,695,662,676,646,605,647,662,636,612,628,588,640
73.1585,641,706,644,672,630,698,658,643,651,641,680,637,617
73.2191,670,672,647,641,680,644,635,622,709,671,607,617,668
73.2796,684,698,665,744,679,655,690,649,662,736,622,657,647
73.3401,698,655,657,681,669,705,635,690,670,639,639,627,652
73.4006,707,669,663,706,665,664,655,677,648,651,627,630,715
73.4611,723,687,718,689,692,653,638,645,659,677,677,694,668
73.5216,726,665,742,752,687,718,666,665,682,716,661,667,654
73.5821,748,735,769,767,720,718,690,684,706,641,643,664,686
73.6426,808,758,782,803,741,695,720,685,709,694,729,699,729
73.7031,830,869,824,784,782,783,726,728,695,721,720,715,709
73.7636,923,890,915,856,895,873,812,837,825,805,800,775,783
73.8241,996,937,978,905,895,881,870,897,899,907,839,871,874
73.8846,1067,986,1087,1075,997,932,881,916,871,905,846,862,865
73.9451,1177,1213,1184,1110,1136,1027,981,961,993,974,954,960,969
74.0056,1310,1304,1300,1289,1246,1220,1157,1175,1231,1173,1160,1159,1160
74.0661,1498,1419,1427,1562,1799,2002,1964,1919,1898,1917,1981,1949,2005
74.1266,1522,1598,1733,2443,4568,6549,6464,6462,6813,6454,6492,6642,6701
74.1871,1555,1629,1828,2556,5447,8764,10826,11277,10951,11100,11191,11077,11280
74.2476,1477,1580,1592,1697,2067,2653,3067,3099,2935,2942,3039,3136,3104
74.3082,1466,1513,1496,1725,1980,2324,2331,2321,2328,2367,2371,2358,2356
74.3687,1328,1419,1553,2179,3849,5564,5889,6071,6148,6113,5885,6147,6367
74.4292,1265,1283,1375,1461,2165,2896,3603,3853,3554,3751,3765,3644,3670
74.4897,1230,1209,1134,1179,1228,1296,1452,1346,1381,1354,1403,1323,1372
74.5502,1035,1066,1087,1049,1037,1003,1009,980,957,974,939,981,977
74.6107,980,926,951,971,867,826,860,825,899,847,857,853,885
74.6712,899,887,891,831,852,823,790,765,804,780,798,829,772
74.7317,856,825,828,791,795,755,690,699,743,702,756,722,717
74.7922,783,793,770,758,763,670,684,691,735,748,711,672,682
74.8527,750,771,731,708,753,717,702,719,670,687,657,697,680
74.9132,695,738,719,663,673,731,658,704,688,669,675,709,727
74.9737,724,711,696,698,717,717,699,669,653,639,675,671,601
75.0342,680,734,675,695,638,646,655,629,699,651,644,616,615
75.0947,682,665,724,711,656,632,650,712,625,672,665,685,644
75.1552,640,648,689,654,673,662,681,699,664,647,651,685,636
75.2157,678,642,665,646,642,600,648,579,667,612,628,639,657
75.2762,645,665,616,598,644,696,660,631,650,645,635,647,663
75.3367,688,653,637,614,639,699,632,624,621,617,646,656,667
75.3973,671,609,624,638,603,637,622,691,622,612,647,635,629
75.4578,655,666,626,578,596,627,625,636,628,580,667,616,628
75.5183,624,617,628,637,627,634,640,619,664,628,669,685,623
75.5788,660,609,639,619,634,691,653,632,635,588,635,673,667
75.6393,645,609,601,616,626,623,612,637,638,613,643,652,642
75.6998,626,630,624,621,656,661,625,590,650,617,617,618,598
75.7603,636,649,633,642,612,666,620,632,625,627,609,641,658
75.8208,611,595,598,651,638,581,646,604,643,618,584,635,644
75.8813,658,628,656,624,643,656,666,653,613,599,591,647,661
75.9418,653,613,609,626,664,620,657,636,662,585,633,614,676
76.0023,649,607,648,591,673,617,624,642,672,636,634,642,625
76.0628,638,621,612,651,638,619,609,613,681,654,607,673,678
76.1233,628,580,571,650,598,626,626,618,613,594,609,604,661
76.1838,657,624,618,596,594,601,622,674,636,638,631,658,631
76.2443,611,624,644,660,611,619,637,652,624,587,603,647,648
76.3048,631,646,578,613,635,586,622,636,599,654,646,650,643
76.3653,610,660,619,610,617,595,583,645,652,648,653,614,618
76.4258,666,626,600,574,642,600,641,684,647,587,612,588,609
76.4864,633,601,616,598,618,644,645,612,586,614,611,587,620
76.5469,644,611,642,633,577,600,600,619,633,598,630,636,604
76.6074,631,586,639,655,617,633,584,641,660,623,592,605,578
76.6679,569,619,635,654,647,615,562,599,629,655,613,625,610
76.7284,665,636,614,615,640,608,592,647,651,631,581,614,631
76.7889,623,637,593,599,600,601,628,588,647,624,604,620,615
76.8494,607,586,645,596,593,615,608,600,655,604,642,606,598
76.9099,610,617,624,608,628,648,585,644,632,590,617,608,649
76.9704,610,634,634,590,640,643,608,578,628,642,588,627,602
77.0309,613,651,556,616,606,633,615,604,666,653,678,601,603
77.0914,609,601,603,604,654,596,616,633,592,603,614,643,696
77.1519,574,617,651,625,632,633,608,632,620,605,598,632,613
77.2124,638,590,551,656,613,606,627,652,608,601,567,599,627
77.2729,608,623,625,616,588,610,622,619,596,598,638,582,598
77.3334,625,649,583,590,615,610,617,650,604,582,623,626,610
77.3939,632,594,636,615,648,612,618,591,660,610,626,604,599
77.4544,579,619,608,610,603,609,581,635,618,610,573,652,598
77.5149,595,635,601,592,626,611,628,605,625,617,598,613,623
77.5755,624,615,613,605,582,622,624,593,605,608,611,650,588
77.636,602,619,578,620,594,579,599,638,614,658,595,646,625
77.6965,589,603,604,604,570,629,640,586,599,628,631,584,639
77.757,617,608,634,597,557,643,612,632,645,617,617,583,654
77.8175,589,640,648,579,625,633,592,592,619,621,625,624,592
77.878,601,613,588,622,592,622,661,613,661,584,626,629,605
77.9385,637,596,617,638,613,672,599,640,606,614,603,646,633
77.999,583,601,582,620,641,626,595,630,656,682,623,597,667