File: outputs/results/xrd_merged/xrd_9ml.csv
2Theta,0h,2h,4h,6h,8h,10h,12h,14h,16h,18h,20h,22h,24h
40.0015,633,651,585,621,620,617,656,610,643,578,607,684,618
40.062,627,601,596,677,647,638,654,600,628,641,590,620,623
40.1225,633,592,649,612,654,612,628,619,619,654,601,619,620
40.183,640,605,611,618,636,616,632,664,643,590,635,552,625
40.2435,627,652,630,629,593,618,631,634,595,589,595,606,656
40.304,648,615,650,663,622,647,616,616,622,580,649,621,620
40.3645,611,657,607,601,607,590,635,586,598,604,633,615,633
40.425,656,643,584,615,621,638,651,567,593,633,621,623,599
40.4855,624,605,672,570,688,618,605,600,665,628,634,582,591
40.546,630,591,631,626,628,595,589,605,604,614,598,646,604
40.6065,611,616,617,623,617,639,628,613,562,648,609,607,594
40.6671,635,606,643,645,620,643,576,614,619,658,592,570,609
40.7276,652,677,631,612,653,602,603,616,651,622,590,621,602
40.7881,584,625,651,643,637,618,627,601,614,555,611,614,615
40.8486,619,626,661,624,622,639,580,619,617,625,643,573,648
40.9091,655,640,626,682,649,663,604,580,604,624,600,582,583
40.9696,641,617,659,722,684,639,611,626,608,669,593,622,574
41.0301,626,649,685,674,670,648,633,603,601,624,577,651,632
41.0906,659,610,629,728,638,620,626,654,619,598,637,651,638
41.1511,640,605,645,655,635,626,627,630,679,616,612,643,596
41.2116,698,657,692,676,670,614,621,628,659,575,644,565,617
41.2721,673,663,661,640,651,608,599,534,597,648,641,601,598
41.3326,675,678,695,642,704,634,643,625,647,637,639,622,639
41.3931,663,608,679,654,683,628,634,582,643,645,608,629,652
41.4536,626,629,656,595,637,663,610,619,613,652,598,611,618
41.5141,747,653,693,683,672,627,638,586,634,645,639,611,637
41.5746,672,671,656,686,683,617,640,639,650,616,601,633,631
41.6351,703,630,724,710,645,655,641,662,614,607,636,619,583
41.6956,664,671,649,684,634,674,624,633,672,642,604,595,656
41.7562,719,649,679,680,623,620,601,570,639,628,580,620,659
41.8167,722,716,748,708,660,665,620,634,570,601,627,635,629
41.8772,676,724,711,748,647,694,608,642,656,630,648,589,615
41.9377,726,750,779,763,753,753,653,671,622,685,680,675,663
41.9982,774,724,711,776,798,733,681,682,694,729,720,742,706
42.0587,768,786,791,786,724,759,736,799,757,731,730,695,732
42.1192,782,789,763,780,776,717,722,692,692,768,726,738,725
42.1797,785,820,737,834,782,778,715,662,708,720,635,731,720
42.2402,811,807,830,785,772,768,700,727,701,717,745,758,740
42.3007,866,822,793,860,826,762,740,747,726,805,677,745,731
42.3612,833,864,848,786,818,738,735,728,700,772,778,702,726
42.4217,907,869,791,831,798,754,779,741,722,773,729,756,722
42.4822,848,858,881,861,837,738,733,688,681,741,749,691,719
42.5427,852,940,864,867,834,753,780,737,782,773,726,746,702
42.6032,937,914,894,892,872,796,714,728,736,778,742,702,731
42.6637,915,920,931,899,898,798,759,795,790,769,718,777,721
42.7242,1005,969,1007,920,903,809,766,776,782,744,735,715,746
42.7847,1023,1052,1031,986,952,837,763,710,814,788,777,775,742
42.8453,1093,1055,1138,1045,956,837,803,809,752,766,777,742,771
42.9058,1223,1150,1136,1166,1055,903,794,798,775,804,807,802,795
42.9663,1338,1294,1266,1261,1132,947,828,811,791,799,824,814,806
43.0268,1528,1448,1434,1368,1304,1006,982,914,829,863,825,833,902
43.0873,1808,1669,1688,1655,1487,1203,1070,988,1000,1001,980,974,980
43.1478,2040,2029,2124,2001,1701,1385,1094,1187,1081,1124,1093,1136,1108
43.2083,2730,2625,2581,2486,2230,1651,1287,1216,1213,1242,1227,1185,1195
43.2688,3832,3487,3587,3477,2915,2142,1652,1610,1520,1591,1490,1505,1548
43.3293,5416,5309,5189,5043,4090,2774,2276,2069,2012,2027,1986,1932,1910
43.3898,8883,8319,8344,7915,6638,4248,3037,2687,2534,2636,2587,2567,2634
43.4503,12953,12870,13116,13310,13269,12097,10629,10991,10641,10732,11267,10365,10475
43.5108,15251,15461,16146,18853,27626,40952,49735,50143,50666,51380,49692,51173,50870
43.5713,13951,14174,14211,14612,14598,13732,13273,13609,13695,13549,13641,13735,13252
43.6318,10982,11237,11586,12456,15519,20133,23872,24108,24446,24670,23699,24890,24446
43.6923,7397,7642,7592,7450,6462,4764,4177,3810,4025,3933,3682,3919,3922
43.7528,5039,5044,5154,4880,4018,2920,2205,2018,1975,1939,1933,1939,2003
43.8133,3577,3470,3478,3404,2811,2077,1642,1567,1508,1516,1502,1551,1534
43.8738,2627,2525,2635,2510,2191,1558,1261,1198,1216,1188,1172,1181,1153
43.9344,2029,2063,2023,1958,1810,1367,1102,1040,1027,1012,986,1052,1002
43.9949,1688,1691,1717,1627,1423,1126,959,910,855,868,863,875,869
44.0554,1540,1486,1516,1503,1265,1020,879,851,788,838,813,839,807
44.1159,1373,1329,1255,1328,1169,936,856,828,818,814,793,772,786
44.1764,1244,1267,1192,1181,1075,882,795,829,774,844,770,759,812
44.2369,1118,1125,1131,1174,1074,889,829,791,797,771,767,760,777
44.2974,1109,1065,1065,1016,970,882,856,820,796,760,768,751,781
44.3579,999,1031,988,987,929,831,758,778,780,804,705,765,735
44.4184,1032,953,936,1033,873,794,741,761,710,771,717,758,748
44.4789,955,927,919,940,869,753,725,742,684,755,745,769,732
44.5394,980,954,940,943,865,735,705,713,748,699,671,755,703
44.5999,917,921,857,856,821,722,759,723,706,701,734,713,752
44.6604,889,903,816,903,844,762,726,715,708,763,711,735,707
44.7209,866,842,884,831,842,719,740,728,725,752,716,700,695
44.7814,821,869,836,789,833,778,759,748,705,685,708,656,688
44.8419,857,852,827,845,792,762,684,680,735,739,719,675,677
44.9024,835,820,818,854,757,711,726,690,685,660,678,711,691
44.9629,867,775,819,794,744,727,664,740,715,730,697,719,649
45.0235,787,752,826,749,710,714,729,710,693,694,652,672,713
45.084,820,812,765,779,768,732,707,727,698,655,685,656,734
45.1445,795,696,744,772,761,743,712,760,692,657,712,673,715
45.205,777,787,733,793,760,774,678,666,700,677,710,709,693
45.2655,844,757,775,746,731,687,726,662,702,745,669,663,669
45.326,793,736,714,787,796,716,680,650,666,673,644,683,655
45.3865,802,784,718,738,783,691,732,703,704,669,718,727,705
45.447,754,759,767,731,734,700,717,750,707,709,740,695,682
45.5075,785,735,769,761,728,658,702,717,722,749,666,710,718
45.568,775,760,765,734,752,681,707,680,730,702,712,671,747
45.6285,782,779,745,741,746,705,666,670,660,675,714,651,721
45.689,797,694,730,765,697,709,705,696,690,673,714,672,683
45.7495,729,751,727,757,721,684,637,666,703,733,676,636,676
45.81,690,756,719,708,711,684,674,681,691,712,667,677,708
45.8705,744,717,721,744,692,675,694,715,650,632,674,634,679
45.931,700,696,757,708,736,680,641,701,662,673,644,666,699
45.9915,741,754,757,741,727,696,663,653,650,674,629,690,668
46.052,787,755,746,738,715,674,666,651,669,681,714,652,661
46.1126,650,692,733,709,690,715,700,634,696,689,668,670,690
46.1731,715,683,672,664,718,707,661,664,658,633,669,674,676
46.2336,741,694,690,705,691,685,687,661,637,662,657,699,663
46.2941,726,711,697,693,697,688,666,706,646,676,653,664,670
46.3546,701,663,747,706,661,654,679,675,665,656,694,672,671
46.4151,735,657,721,730,715,669,660,700,653,666,622,677,734
46.4756,688,660,732,690,700,698,669,619,606,666,659,658,634
46.5361,704,692,739,745,662,699,674,636,685,663,675,638,676
46.5966,723,710,681,689,664,662,642,679,684,637,605,659,713
46.6571,697,697,627,688,714,652,623,651,650,671,638,611,616
46.7176,681,709,711,703,630,646,650,669,646,648,645,643,619
46.7781,716,719,716,742,697,684,615,668,629,673,663,657,715
46.8386,685,737,725,649,737,692,665,637,658,732,682,613,664
46.8991,756,699,701,712,660,646,641,667,639,676,680,678,618
46.9596,761,727,745,718,673,651,618,690,671,606,659,633,705
47.0201,673,754,735,688,670,707,676,668,630,602,653,677,647
47.0806,729,701,729,727,686,661,740,639,642,672,633,663,638
47.1411,673,662,698,701,735,683,633,638,623,650,672,662,661
47.2017,692,675,675,703,648,657,663,613,587,641,667,620,662
47.2622,658,673,649,701,706,705,667,607,672,665,628,655,673
47.3227,739,642,692,661,676,701,671,669,619,653,619,652,647
47.3832,687,728,715,747,620,683,663,650,618,670,665,621,697
47.4437,700,657,684,675,642,671,622,654,668,634,656,699,622
47.5042,707,668,730,667,657,676,664,659,676,656,650,667,679
47.5647,671,710,701,673,667,667,654,673,702,687,686,656,599
47.6252,736,715,699,719,721,639,675,640,671,666,675,684,654
47.6857,707,716,703,710,695,632,643,652,662,638,642,647,669
47.7462,670,702,725,719,668,670,642,657,629,663,632,612,672
47.8067,706,695,693,710,682,666,637,633,668,636,630,651,614
47.8672,695,706,741,679,727,684,592,637,606,669,657,682,670
47.9277,673,712,670,668,688,647,633,653,656,648,631,658,628
47.9882,698,642,699,684,690,695,649,653,621,686,650,631,635
48.0487,692,699,730,667,696,671,654,659,633,639,637,648,659
48.1092,726,757,654,715,676,705,613,620,626,667,635,658,649
48.1697,711,662,707,687,701,660,599,656,623,631,629,629,690
48.2302,704,678,672,701,730,658,631,615,644,655,658,628,653
48.2908,696,680,722,707,706,639,660,628,617,677,651,652,659
48.3513,649,738,760,674,697,694,636,618,647,653,693,632,642
48.4118,696,676,712,723,652,711,625,661,644,662,622,639,656
48.4723,700,724,740,718,725,704,676,649,632,622,674,593,688
48.5328,772,721,726,687,673,680,672,634,637,637,625,664,626
48.5933,734,700,694,745,719,672,708,639,617,646,646,618,615
48.6538,717,772,729,690,685,661,673,661,625,650,638,673,610
48.7143,701,650,690,731,694,656,657,622,667,637,664,629,667
48.7748,721,694,706,712,692,683,649,663,617,638,663,710,607
48.8353,716,745,812,702,722,713,658,694,668,666,673,711,682
48.8958,744,708,694,717,757,680,648,692,661,644,651,653,617
48.9563,719,648,698,760,732,703,664,674,681,680,690,641,687
49.0168,735,740,710,743,756,705,669,637,675,662,665,623,656
49.0773,747,753,749,751,731,693,691,684,705,716,673,691,687
49.1378,808,777,751,738,751,698,670,673,679,658,647,667,678
49.1983,792,789,725,754,706,687,645,632,684,670,694,646,685
49.2588,756,735,758,788,719,717,685,641,682,682,668,641,655
49.3193,852,804,812,736,727,753,638,639,670,699,632,638,640
49.3799,766,830,740,784,801,617,653,669,669,613,678,697,737
49.4404,772,799,833,802,777,742,688,691,700,716,616,684,712
49.5009,843,761,774,773,792,722,688,708,701,623,690,687,688
49.5614,830,862,798,797,746,737,633,694,709,677,666,711,685
49.6219,850,810,847,834,760,677,641,649,697,696,682,683,656
49.6824,882,843,861,875,841,738,688,657,672,694,676,656,668
49.7429,914,859,922,868,810,716,725,690,656,716,633,678,703
49.8034,932,906,893,941,806,748,705,679,661,680,672,675,673
49.8639,941,929,965,923,874,800,703,686,669,715,666,635,679
49.9244,1021,1004,984,941,839,763,650,704,677,721,677,700,701
49.9849,1077,1073,1081,1022,991,769,719,703,667,708,636,678,703
50.0454,1149,1148,1174,1104,1026,853,749,689,683,676,700,711,679
50.1059,1310,1286,1309,1225,1104,801,727,718,741,739,737,723,727
50.1664,1486,1405,1465,1276,1158,893,789,781,741,785,715,719,719
50.2269,1633,1647,1576,1565,1307,971,831,799,809,746,751,769,780
50.2874,1975,1880,1970,1833,1524,1070,947,835,839,834,787,841,821
50.3479,2219,2210,2211,2147,1869,1295,945,916,909,916,927,923,875
50.4084,2715,2717,2529,2481,2047,1436,1163,1107,1061,1047,1031,996,1065
50.469,3180,3078,3085,2957,2442,1762,1307,1221,1195,1208,1170,1221,1184
50.5295,3587,3553,3570,3423,2971,2361,2007,1872,1916,1873,1924,1851,1889
50.59,3809,3771,4134,4394,5414,6355,6000,6393,6390,6420,6548,6145,6303
50.6505,3889,3920,4182,4755,6196,8714,10404,10750,10784,11100,10812,11131,10943
50.711,3710,3751,3757,3934,4221,4420,4310,4522,4580,4526,4516,4614,4690
50.7715,3252,3373,3533,3812,4492,5794,6359,6419,6547,6682,6469,6767,6411
50.832,2883,2936,2875,2903,2753,2514,2429,2474,2422,2449,2441,2543,2521
50.8925,2492,2468,2489,2532,2064,1518,1353,1297,1229,1219,1223,1191,1205
50.953,1956,2077,2051,2008,1754,1300,1081,988,966,991,966,956,1007
51.0135,1717,1758,1737,1733,1422,1039,904,876,796,797,803,846,795
51.074,1502,1538,1573,1490,1318,1026,859,812,812,758,752,737,771
51.1345,1339,1344,1312,1237,1108,889,745,752,759,748,745,725,761
51.195,1201,1196,1145,1140,1076,836,737,718,717,694,667,713,741
51.2555,1063,1107,1112,1096,961,846,708,684,709,679,691,665,635
51.316,961,1056,955,996,915,753,680,684,705,662,687,706,690
51.3765,951,930,914,926,877,756,660,687,688,676,665,683,688
51.437,904,943,851,812,785,764,655,641,686,677,680,704,662
51.4975,864,857,910,796,766,728,680,662,679,661,664,682,649
51.5581,824,794,856,801,773,702,638,644,697,682,671,628,700
51.6186,785,804,835,780,767,686,694,652,678,670,625,676,663
51.6791,789,737,768,778,781,638,609,688,667,658,682,668,658
51.7396,758,736,746,729,746,650,647,587,648,664,630,641,604
51.8001,724,733,753,719,766,640,702,631,643,666,659,642,647
51.8606,707,740,726,713,707,653,634,631,638,625,656,647,651
51.9211,772,690,701,683,688,668,638,635,659,675,647,663,627
51.9816,723,631,712,740,698,693,674,669,607,605,646,660,657
52.0421,711,674,750,683,657,644,614,588,684,656,640,601,621
52.1026,740,665,712,721,687,640,660,673,650,623,688,606,613
52.1631,682,658,717,697,693,669,626,639,641,640,617,612,664
52.2236,672,691,683,737,653,645,640,686,639,680,606,639,603
52.2841,696,689,678,700,680,644,635,676,649,643,642,620,640
52.3446,687,635,656,716,627,638,625,593,599,635,635,690,634
52.4051,691,704,685,649,671,633,620,651,640,608,637,632,637
52.4656,660,677,652,670,602,612,604,637,597,624,669,659,636
52.5261,633,676,637,649,713,677,637,590,650,631,608,630,627
52.5866,694,706,637,677,639,659,624,622,669,635,672,608,609
52.6472,673,638,680,640,654,648,623,646,611,682,629,606,644
52.7077,670,672,671,640,664,633,659,598,574,627,667,627,621
52.7682,649,669,655,660,636,628,660,652,635,644,615,667,640
52.8287,641,620,644,619,646,646,595,610,550,638,603,620,603
52.8892,676,658,653,674,606,612,602,638,656,611,629,634,590
52.9497,688,658,658,650,659,636,607,659,662,653,642,602,610
53.0102,643,617,660,646,644,616,594,650,577,637,626,608,609
53.0707,677,677,638,661,684,661,626,633,601,621,644,639,638
53.1312,635,631,628,634,628,659,643,635,593,649,652,619,626
53.1917,685,647,660,641,607,616,659,615,635,629,598,646,613
53.2522,712,665,645,655,603,592,621,631,634,632,647,624,616
53.3127,628,633,660,612,644,637,610,626,659,646,614,612,657
53.3732,653,634,585,677,624,642,660,610,612,577,639,572,607
53.4337,680,629,707,618,653,599,599,635,665,618,670,620,614
53.4942,642,622,665,616,636,615,636,644,650,636,586,600,592
53.5547,631,663,650,655,655,708,604,654,601,624,628,660,619
53.6152,661,622,628,653,659,644,599,613,624,602,617,614,616
53.6757,609,618,653,670,628,622,592,659,642,657,622,619,625
53.7363,614,619,605,657,669,635,597,614,619,619,610,630,579
53.7968,649,672,604,656,649,631,589,597,641,638,614,625,635
53.8573,656,581,640,640,631,646,677,631,657,597,616,646,609
53.9178,616,627,662,597,618,641,630,632,625,591,631,632,605
53.9783,656,655,611,623,655,642,639,626,581,643,615,615,600
54.0388,580,667,612,645,638,629,632,659,564,606,623,622,611
54.0993,573,638,655,629,636,623,628,684,617,623,625,616,600
54.1598,608,614,625,631,604,642,635,624,591,634,621,616,639
54.2203,690,640,655,632,639,603,611,634,628,624,656,598,649
54.2808,651,655,592,633,678,617,622,626,626,639,572,645,559
54.3413,631,607,672,624,602,640,642,621,654,642,576,666,605
54.4018,633,663,662,685,656,650,636,635,583,626,633,608,624
54.4623,635,659,585,639,604,637,627,573,648,583,610,658,608
54.5228,618,619,592,627,590,636,616,593,610,616,593,606,625
54.5833,635,657,619,629,659,619,586,609,634,596,604,650,656
54.6438,571,614,596,614,594,608,599,616,651,618,642,606,614
54.7043,629,621,651,642,629,628,595,613,615,616,621,610,643
54.7648,648,659,633,626,627,615,646,585,609,605,594,629,584
54.8254,664,607,642,617,662,606,644,623,644,635,651,603,620
54.8859,622,615,608,598,638,603,606,632,617,635,616,611,623
54.9464,634,642,631,566,669,609,574,592,609,627,593,609,595
55.0069,640,642,602,619,599,608,633,618,611,584,598,632,649
55.0674,617,612,626,622,656,632,611,635,637,586,601,670,594
55.1279,619,633,623,659,634,568,667,657,654,593,594,596,633
55.1884,617,634,573,611,605,638,586,602,634,595,563,582,624
55.2489,600,683,637,627,615,606,627,668,627,606,613,614,657
55.3094,605,587,587,676,674,570,585,610,632,586,623,619,578
55.3699,594,634,652,666,622,600,653,633,574,600,596,559,641
55.4304,630,667,608,640,599,640,623,640,665,598,580,654,611
55.4909,639,628,621,598,621,633,643,632,613,634,623,616,660
55.5514,595,606,657,584,656,639,634,585,614,601,631,638,592
55.6119,602,657,643,629,663,611,600,600,559,641,590,654,661
55.6724,653,616,581,647,654,642,637,604,594,586,617,572,621
55.7329,634,574,632,577,613,627,647,632,610,623,576,582,632
55.7934,617,620,607,611,636,552,621,635,616,658,606,619,614
55.854,580,618,604,621,638,598,625,599,622,599,605,611,613
55.9145,667,612,611,605,583,560,622,624,601,601,596,610,669
55.975,629,641,631,641,605,619,599,592,618,593,628,560,585
56.0355,614,606,652,624,613,653,602,630,596,628,637,628,593
56.096,621,654,614,624,652,622,641,612,601,600,557,598,627
56.1565,614,649,653,619,574,611,583,578,590,579,624,561,607
56.217,621,632,607,604,607,606,594,599,597,608,633,654,640
56.2775,585,588,649,644,626,606,608,620,626,568,613,642,618
56.338,614,598,651,619,610,622,604,655,617,607,626,627,626
56.3985,611,629,602,618,598,589,586,587,604,593,601,613,593
56.459,618,584,627,584,622,648,604,589,595,590,596,620,576
56.5195,581,613,579,607,645,608,596,680,631,632,600,586,628
56.58,652,636,613,616,608,601,587,613,580,594,621,643,585
56.6405,590,560,605,596,656,595,566,617,615,637,596,636,575
56.701,591,590,608,610,620,605,588,620,620,651,635,614,634
56.7615,590,626,641,660,627,612,562,585,621,611,594,602,636
56.822,611,555,584,631,650,597,612,588,614,581,592,561,598
56.8825,578,613,589,608,593,588,618,573,616,603,574,589,612
56.9431,621,591,621,613,644,606,595,594,606,588,625,615,569
57.0036,606,607,561,633,635,640,652,614,591,620,646,581,590
57.0641,683,652,646,663,622,650,571,607,615,621,608,570,594
57.1246,636,595,588,621,613,614,581,605,617,583,613,660,583
57.1851,558,625,613,614,597,608,625,613,553,617,595,611,603
57.2456,631,560,610,655,600,604,579,610,593,623,624,569,643
57.3061,582,590,576,559,647,585,567,616,625,580,550,602,603
57.3666,605,635,608,631,590,582,631,636,607,613,617,622,598
57.4271,617,604,605,600,636,644,606,588,639,610,563,599,637
57.4876,591,623,618,598,636,609,608,635,598,631,580,627,560
57.5481,590,616,589,604,615,661,598,619,579,635,609,626,582
57.6086,571,583,623,640,617,582,606,651,613,641,605,599,600
57.6691,601,634,638,608,597,574,595,606,609,657,571,604,569
57.7296,617,638,610,573,646,609,614,572,595,644,617,633,589
57.7901,600,565,601,630,614,596,591,609,633,588,569,587,592
57.8506,648,570,608,575,673,606,598,615,615,624,588,598,611
57.9111,632,592,592,645,605,586,641,584,620,613,603,621,574
57.9716,590,651,587,595,570,589,578,565,587,629,583,603,593
58.0322,629,585,567,615,611,655,641,589,586,648,601,608,592
58.0927,637,625,622,599,621,592,579,602,618,566,591,604,610
58.1532,596,590,621,629,638,585,593,579,598,602,589,577,598
58.2137,593,587,597,572,605,627,557,591,646,572,554,593,602
58.2742,634,590,596,623,619,651,598,585,608,614,563,592,549
58.3347,566,628,626,601,629,607,594,606,595,602,613,583,566
58.3952,574,607,617,626,597,596,586,567,635,621,626,653,566
58.4557,583,550,586,628,590,632,609,652,605,566,607,606,594
58.5162,600,557,585,616,624,608,594,600,605,621,606,590,610
58.5767,583,610,626,642,600,589,586,613,625,573,581,601,589
58.6372,629,608,582,611,613,617,566,637,580,610,612,630,651
58.6977,604,645,598,641,640,585,580,587,623,585,643,582,578
58.7582,626,578,635,627,573,538,618,582,566,549,602,538,611
58.8187,606,589,608,586,599,592,618,604,557,542,577,584,586
58.8792,639,645,635,590,561,629,589,613,573,633,616,587,629
58.9397,650,576,622,588,584,602,587,613,606,652,604,582,615
59.0002,615,630,586,605,567,568,569,564,600,639,544,596,616
59.0607,590,595,574,605,638,619,597,591,638,611,585,598,598
59.1213,590,594,614,580,602,583,611,616,609,630,584,572,595
59.1818,617,603,588,581,639,583,651,572,588,591,574,631,620
59.2423,604,601,617,626,590,588,590,598,618,577,588,586,616
59.3028,588,576,585,565,580,571,558,599,590,621,606,572,656
59.3633,601,644,581,619,582,592,593,597,606,654,564,553,602
59.4238,629,616,609,586,636,599,602,613,609,644,594,609,627
59.4843,625,590,608,631,615,627,654,615,577,630,586,636,648
59.5448,591,592,621,577,613,581,537,608,594,618,587,586,625
59.6053,579,591,605,643,626,607,599,588,599,620,611,554,593
59.6658,644,607,617,575,606,607,618,597,600,588,594,591,569
59.7263,653,594,591,593,601,632,591,585,579,601,597,599,587
59.7868,621,647,613,619,589,581,610,608,563,608,593,628,557
59.8473,617,598,603,641,597,579,596,580,610,584,606,557,575
59.9078,617,594,659,606,649,635,577,577,614,621,605,594,608
59.9683,583,572,602,601,608,616,568,607,634,565,596,617,600
60.0288,628,592,618,596,628,631,611,623,602,588,623,583,619
60.0893,554,625,606,565,599,605,581,630,592,610,603,622,567
60.1498,610,599,592,608,603,659,631,600,550,581,607,576,602
60.2104,638,622,605,611,617,594,618,580,586,583,594,592,643
60.2709,597,587,585,592,597,584,605,583,613,621,607,570,587
60.3314,584,622,614,673,580,648,611,618,623,621,584,629,597
60.3919,600,638,621,616,632,557,589,590,577,569,597,610,597
60.4524,582,595,605,557,584,629,596,631,575,596,625,577,616
60.5129,598,622,601,572,626,608,601,572,595,592,596,629,606
60.5734,616,616,542,588,546,636,594,598,548,631,605,588,633
60.6339,592,609,582,608,586,618,581,587,596,628,565,569,584
60.6944,647,631,593,545,613,572,598,577,570,642,572,584,560
60.7549,593,604,631,606,603,647,582,613,626,589,583,580,598
60.8154,606,574,558,617,597,601,605,583,598,591,601,611,590
60.8759,627,632,614,622,609,602,599,566,599,607,599,603,605
60.9364,569,613,575,553,605,612,569,591,613,576,561,578,568
60.9969,577,622,644,611,618,596,632,618,623,618,596,601,604
61.0574,583,553,608,612,569,612,616,601,563,628,624,632,571
61.1179,608,602,567,618,636,575,593,595,582,643,585,615,598
61.1784,573,596,612,612,576,612,599,596,627,611,611,602,551
61.2389,620,605,595,604,588,566,588,568,612,623,588,561,590
61.2995,618,637,605,637,634,637,607,632,576,551,622,540,584
61.36,600,575,617,608,620,605,580,552,586,578,611,608,592
61.4205,592,618,598,580,569,633,605,592,630,574,595,616,593
61.481,557,602,562,619,640,580,577,568,608,588,568,628,601
61.5415,597,611,614,615,592,612,608,580,588,613,567,620,588
61.602,597,631,590,621,611,602,592,582,593,607,584,619,631
61.6625,605,583,602,617,578,602,621,592,595,627,579,597,649
61.723,615,634,566,603,579,597,609,603,594,581,612,567,570
61.7835,601,611,583,633,573,588,594,557,573,611,568,579,596
61.844,581,581,610,601,606,592,575,568,603,555,625,611,555
61.9045,579,598,594,569,578,591,599,610,583,571,604,580,584
61.965,596,567,608,667,600,562,599,626,588,653,588,581,628
62.0255,603,621,610,602,617,616,594,604,628,602,583,561,584
62.086,604,594,628,579,582,604,618,560,615,630,630,569,592
62.1465,602,607,586,597,630,570,586,576,604,563,588,632,595
62.207,570,595,547,617,623,599,578,627,596,629,624,582,613
62.2675,556,577,593,630,638,568,600,582,603,593,577,552,558
62.328,601,575,572,597,650,565,609,629,561,596,573,578,611
62.3886,581,570,592,611,669,590,578,570,611,560,553,564,557
62.4491,616,598,593,610,627,596,632,633,615,611,578,592,588
62.5096,602,576,584,580,594,610,590,567,602,573,608,595,612
62.5701,600,614,630,612,611,565,575,600,595,584,609,647,576
62.6306,599,588,625,579,611,610,568,640,589,586,596,574,596
62.6911,610,585,565,585,590,567,558,614,600,582,602,575,614
62.7516,584,613,582,597,596,621,571,597,577,556,556,571,611
62.8121,612,551,560,605,579,612,568,605,606,584,600,598,590
62.8726,622,572,604,585,573,544,600,605,626,609,580,588,604
62.9331,586,584,607,589,593,586,617,631,610,591,621,610,568
62.9936,614,592,593,598,545,558,572,592,579,599,635,611,580
63.0541,602,612,587,611,615,608,594,598,644,577,576,608,571
63.1146,566,621,611,613,586,633,609,595,628,600,559,654,586
63.1751,560,589,613,585,607,536,593,599,589,626,580,591,600
63.2356,569,606,602,577,611,616,601,580,578,618,556,609,601
63.2961,548,561,595,615,651,617,597,598,576,574,614,573,612
63.3566,590,546,604,602,629,601,626,586,636,621,594,603,592
63.4171,577,623,576,592,587,621,569,570,568,577,581,588,584
63.4777,594,580,593,596,565,572,587,560,557,625,595,555,613
63.5382,576,592,593,613,576,592,570,593,615,591,594,591,591
63.5987,572,555,584,603,604,632,593,574,610,563,553,587,588
63.6592,572,597,605,574,621,590,621,634,539,561,564,597,594
63.7197,587,569,574,594,615,559,569,564,610,554,565,590,567
63.7802,580,572,638,582,634,587,556,604,621,575,586,592,568
63.8407,591,567,597,582,607,609,598,605,585,600,585,555,587
63.9012,589,543,621,600,639,602,552,565,591,569,588,575,612
63.9617,578,598,579,610,562,599,592,588,589,606,594,603,590
64.0222,587,597,617,619,550,604,574,631,602,611,612,610,596
64.0827,571,591,582,601,595,597,585,591,582,595,573,561,599
64.1432,587,638,606,594,646,592,600,612,556,552,594,600,560
64.2037,590,580,595,557,606,610,602,607,630,580,561,576,606
64.2642,618,605,607,554,596,628,572,557,570,610,583,604,612
64.3247,587,562,542,555,570,596,554,585,534,599,560,621,580
64.3852,628,605,632,621,579,584,588,592,616,620,640,589,601
64.4457,619,575,550,583,571,577,626,580,577,612,568,570,609
64.5062,607,561,597,612,612,606,584,575,608,625,578,569,587
64.5668,621,570,597,622,575,565,611,596,596,632,596,569,562
64.6273,586,597,595,593,617,614,599,619,612,591,519,579,575
64.6878,632,581,576,610,556,544,582,602,578,585,620,585,541
64.7483,592,614,585,593,589,578,615,613,623,580,589,568,578
64.8088,587,624,627,570,585,611,586,573,610,663,582,574,578
64.8693,573,605,562,554,586,603,568,631,613,549,574,561,632
64.9298,598,605,597,585,550,583,581,569,567,617,549,608,554
64.9903,589,602,598,614,580,610,576,607,585,591,609,591,580
65.0508,586,538,608,635,595,625,580,577,594,634,551,607,594
65.1113,571,569,560,525,584,581,577,616,624,608,557,613,592
65.1718,621,569,642,573,584,609,553,628,614,608,590,596,613
65.2323,645,602,568,546,611,601,579,565,568,617,610,622,617
65.2928,568,641,597,628,561,577,606,593,595,558,587,604,564
65.3533,577,569,547,558,578,564,612,583,575,635,592,558,594
65.4138,537,579,597,560,585,576,603,599,595,577,620,545,602
65.4743,589,605,604,630,567,600,615,599,562,592,572,579,581
65.5348,636,627,625,632,605,580,589,627,619,610,559,585,611
65.5953,549,548,577,611,581,581,563,573,603,599,576,538,621
65.6559,541,555,598,597,612,606,627,552,589,605,604,625,569
65.7164,631,583,629,612,560,625,569,574,616,549,605,647,577
65.7769,560,613,558,590,629,587,571,587,608,594,641,627,597
65.8374,589,617,565,592,594,573,626,549,579,608,570,597,603
65.8979,592,610,599,583,583,555,572,590,622,592,570,568,604
65.9584,617,532,580,596,538,544,573,610,609,590,587,614,566
66.0189,571,592,614,617,558,566,596,575,598,576,615,589,623
66.0794,634,605,576,605,574,576,578,585,611,603,577,588,557
66.1399,589,609,561,591,574,576,566,618,623,611,628,609,638
66.2004,569,611,608,557,593,605,622,616,611,616,571,591,604
66.2609,604,549,589,559,589,587,548,612,587,601,592,622,600
66.3214,600,609,599,592,594,559,581,624,574,579,605,593,585
66.3819,577,592,597,606,618,619,587,563,603,577,558,610,577
66.4424,621,630,589,583,578,626,577,536,574,596,596,600,580
66.5029,613,591,587,567,582,577,609,615,622,602,620,617,582
66.5634,607,585,609,591,616,615,552,569,588,557,610,595,573
66.6239,580,572,611,563,640,557,569,581,582,647,600,594,607
66.6844,580,603,615,563,606,606,598,576,583,595,627,605,578
66.745,572,585,576,573,623,570,618,562,580,597,578,602,568
66.8055,582,596,582,583,609,599,583,580,576,628,617,565,550
66.866,622,592,566,568,620,614,599,607,592,644,566,606,669
66.9265,585,575,605,590,602,622,557,624,582,583,571,590,604
66.987,543,570,557,556,580,576,621,578,576,605,578,576,619
67.0475,560,580,556,562,590,603,583,609,571,565,591,623,558
67.108,575,584,591,580,546,622,588,601,545,635,575,572,538
67.1685,577,601,619,607,579,570,582,570,547,614,593,589,568
67.229,584,554,608,573,547,569,588,595,595,622,599,570,611
67.2895,574,574,594,579,588,606,612,558,614,599,584,580,582
67.35,590,593,571,608,570,597,598,571,566,582,620,587,610
67.4105,565,566,567,591,576,552,581,607,577,561,564,570,591
67.471,625,597,604,573,595,588,592,609,608,560,561,588,611
67.5315,580,565,588,566,638,593,610,562,591,620,545,557,592
67.592,639,547,584,563,531,582,540,622,594,605,598,574,579
67.6525,608,560,590,583,549,594,608,603,600,605,585,603,585
67.713,616,596,608,547,643,599,588,568,599,581,576,606,581
67.7735,592,571,637,576,636,587,566,607,589,567,563,605,632
67.8341,654,573,583,593,563,612,604,582,576,610,552,596,616
67.8946,561,625,571,593,585,581,592,592,601,624,578,574,586
67.9551,613,576,597,599,601,571,601,591,611,615,589,527,608
68.0156,575,623,616,594,597,608,568,582,604,587,575,512,573
68.0761,587,552,585,590,581,592,580,546,607,580,574,565,554
68.1366,575,601,612,600,573,603,574,578,565,583,610,572,615
68.1971,569,587,610,600,612,614,599,586,603,626,597,572,554
68.2576,625,640,612,546,600,538,600,562,583,616,608,595,580
68.3181,618,561,605,561,628,637,574,573,599,584,582,586,549
68.3786,614,610,621,562,624,614,577,615,603,578,553,607,588
68.4391,633,591,593,591,617,612,599,611,628,605,594,591,602
68.4996,622,564,591,550,533,600,551,608,590,546,579,593,558
68.5601,564,596,599,584,631,574,635,557,585,547,587,608,630
68.6206,573,549,593,611,599,612,565,594,580,616,583,589,645
68.6811,571,522,588,595,592,553,554,597,592,593,612,573,529
68.7416,610,625,583,567,605,586,602,564,544,570,561,560,601
68.8021,641,592,585,546,599,599,583,601,599,566,551,572,615
68.8626,597,579,579,547,596,559,592,574,592,588,608,636,628
68.9232,593,535,608,581,595,573,565,607,600,586,615,576,600
68.9837,583,564,560,597,605,597,567,604,597,575,598,586,627
69.0442,617,584,589,610,577,566,566,620,620,574,599,553,537
69.1047,583,595,570,588,567,576,593,590,589,621,576,553,581
69.1652,610,542,636,614,572,600,624,585,609,558,582,583,607
69.2257,598,564,618,631,582,635,538,602,600,600,576,561,594
69.2862,624,575,584,595,618,568,596,592,556,597,600,580,526
69.3467,585,571,574,588,565,577,560,628,620,567,607,612,517
69.4072,580,582,606,558,572,563,575,590,609,590,575,562,581
69.4677,599,583,597,570,599,602,591,617,656,595,553,585,551
69.5282,608,564,615,572,596,582,637,574,616,608,592,549,592
69.5887,592,580,587,613,613,642,615,581,637,626,561,576,564
69.6492,598,593,598,577,593,608,610,576,611,628,589,623,592
69.7097,595,569,635,607,585,589,580,605,574,601,561,615,562
69.7702,597,571,571,579,569,589,609,613,630,580,569,639,583
69.8307,636,543,548,586,561,593,588,584,575,616,549,594,601
69.8912,596,567,587,595,588,601,599,654,617,588,587,584,545
69.9517,598,563,582,594,608,564,543,575,567,574,577,609,559
70.0123,571,609,578,580,575,590,573,631,566,615,586,635,558
70.0728,563,576,603,589,577,610,559,595,583,612,563,584,601
70.1333,566,624,588,600,577,607,564,609,577,622,581,610,618
70.1938,632,582,560,548,546,570,602,632,573,585,643,590,575
70.2543,636,569,589,603,622,587,575,577,568,591,564,584,564
70.3148,600,559,579,582,566,586,589,567,590,574,591,576,586
70.3753,573,594,588,643,579,573,613,610,601,576,601,609,576
70.4358,615,544,601,576,552,585,609,584,609,587,582,598,573
70.4963,602,551,583,619,596,596,584,566,578,571,588,588,607
70.5568,617,614,579,630,593,574,578,601,611,606,561,546,615
70.6173,579,557,566,584,644,568,590,564,592,614,554,579,591
70.6778,586,579,566,556,605,572,555,590,552,614,558,587,627
70.7383,602,619,599,561,583,569,561,598,579,587,571,585,601
70.7988,580,563,564,597,560,616,566,618,602,600,603,598,569
70.8593,547,576,608,587,597,599,563,617,586,669,639,606,615
70.9198,597,589,618,602,586,579,558,593,579,591,588,632,593
70.9803,568,595,602,593,625,594,533,590,580,557,582,569,593
71.0409,596,614,611,578,582,580,590,586,602,582,538,600,591
71.1014,637,584,620,592,602,596,633,613,623,607,575,589,597
71.1619,573,590,592,540,554,572,574,579,608,599,580,595,604
71.2224,596,585,574,624,551,596,626,597,617,608,604,591,600
71.2829,569,561,564,603,615,614,660,574,567,598,587,595,557
71.3434,578,581,598,545,608,609,584,594,576,622,538,621,611
71.4039,610,579,604,622,585,657,624,609,623,604,617,615,601
71.4644,587,606,582,567,576,608,627,591,596,643,554,586,573
71.5249,585,564,566,589,602,606,617,567,626,614,641,596,608
71.5854,575,585,552,590,601,612,614,583,658,644,602,558,622
71.6459,618,566,643,614,582,640,619,650,569,654,611,610,585
71.7064,586,574,583,595,636,589,604,617,578,569,649,609,585
71.7669,594,586,578,605,607,615,585,575,615,624,631,636,570
71.8274,617,604,570,619,573,635,622,581,585,613,612,608,600
71.8879,566,585,596,581,597,599,560,629,600,608,611,609,651
71.9484,593,618,571,590,607,609,617,629,609,571,605,608,606
72.0089,615,575,585,609,593,600,597,618,597,650,589,622,622
72.0694,583,601,591,580,599,619,619,615,614,631,602,595,600
72.13,603,603,619,530,581,576,614,609,591,613,645,582,594
72.1905,645,583,618,596,573,577,595,609,583,641,629,623,572
72.251,605,568,570,609,583,596,636,620,588,570,564,617,576
72.3115,601,608,589,600,600,590,601,628,609,609,634,600,589
72.372,585,572,572,602,577,620,600,585,614,617,607,590,587
72.4325,638,597,603,598,620,552,575,598,588,600,621,631,566
72.493,632,627,582,563,635,637,622,631,576,587,616,611,640
72.5535,616,604,556,637,592,654,596,593,622,619,616,623,606
72.614,615,629,631,627,607,609,609,600,616,574,625,622,542
72.6745,627,593,605,562,614,595,598,589,606,610,589,622,540
72.735,625,584,586,622,595,639,598,599,575,604,626,588,646
72.7955,620,603,590,600,595,617,578,609,589,602,632,565,620
72.856,595,600,644,621,608,613,597,704,620,638,582,623,575
72.9165,667,603,577,660,572,591,583,649,617,579,574,623,636
72.977,637,636,632,620,626,613,600,622,602,562,592,582,619
73.0375,594,599,602,639,637,619,572,585,607,631,624,625,585
73.098,593,570,646,600,617,618,596,640,606,614,672,619,577
73.1585,601,584,633,616,586,632,592,601,611,647,602,587,638
73.2191,631,654,617,595,629,640,630,597,639,652,615,648,647
73.2796,635,690,633,625,611,590,651,632,613,644,650,604,637
73.3401,647,612,645,620,622,591,619,643,599,651,630,645,623
73.4006,647,667,657,648,656,662,610,611,642,599,613,637,611
73.4611,660,690,651,651,620,648,617,629,624,650,611,639,620
73.5216,645,638,667,670,672,699,660,628,625,607,617,641,637
73.5821,745,674,689,694,660,641,645,635,579,616,623,654,638
73.6426,723,719,729,707,661,656,643,651,600,678,657,647,675
73.7031,739,710,696,685,689,637,631,670,632,602,598,689,665
73.7636,808,739,764,721,713,683,700,658,679,653,654,688,679
73.8241,824,829,829,768,750,736,685,749,689,687,671,750,747
73.8846,860,870,864,823,804,781,778,772,790,771,753,777,783
73.9451,936,894,926,912,920,836,779,864,816,812,810,808,799
74.0056,1079,950,974,911,934,858,823,812,834,860,801,826,799
74.0661,1079,1127,1127,1110,1066,929,956,902,893,957,851,857,846
74.1266,1267,1179,1218,1241,1212,1142,1037,1089,1012,1053,1079,1027,1077
74.1871,1375,1356,1410,1396,1597,1757,1607,1777,1775,1812,1762,1769,1763
74.2476,1453,1459,1618,2287,3938,5487,5782,6169,6087,6134,6046,5896,6125
74.3082,1494,1474,1619,2143,4295,7214,8762,9161,9360,9024,9386,9450,9217
74.3687,1404,1460,1461,1554,1871,2354,2527,2635,2643,2652,2655,2601,2712
74.4292,1295,1430,1373,1496,1859,2054,2124,2168,2221,2234,2261,2181,2261
74.4897,1272,1298,1346,1870,3132,4683,5042,5442,5277,5327,5375,5285,5430
74.5502,1175,1201,1222,1307,1859,2604,3032,3150,3268,3196,3242,3152,3201
74.6107,1058,1099,1071,1079,1145,1158,1239,1273,1257,1189,1256,1246,1234
74.6712,967,986,947,946,929,903,915,911,880,918,901,849,871
74.7317,921,945,912,886,895,790,792,781,807,791,782,756,819
74.7922,869,802,859,791,792,781,770,712,730,716,715,724,738
74.8527,784,804,796,766,774,734,713,691,664,710,693,703,665
74.9132,739,785,750,749,711,697,687,625,657,671,651,665,652
74.9737,695,709,692,658,702,644,683,651,674,629,644,648,648
75.0342,702,671,700,755,659,680,643,659,643,611,615,618,653
75.0947,665,694,650,686,693,671,635,642,599,666,614,679,632
75.1552,659,667,663,651,709,626,628,629,595,618,588,592,654
75.2157,658,659,643,642,695,620,628,586,606,603,673,622,627
75.2762,625,624,667,622,657,634,615,624,626,607,628,607,610
75.3367,633,613,621,595,635,606,588,589,618,626,613,642,600
75.3973,627,624,627,647,676,623,653,636,613,621,592,597,620
75.4578,647,570,613,654,592,623,607,634,638,604,612,596,613
75.5183,635,615,640,579,640,599,614,609,599,591,595,613,624
75.5788,657,588,589,623,628,567,595,626,590,585,582,646,593
75.6393,577,605,618,617,659,627,642,644,606,542,587,611,623
75.6998,630,580,573,652,617,609,625,608,610,609,609,614,602
75.7603,623,561,626,625,639,577,602,629,564,649,540,588,606
75.8208,612,581,601,602,648,617,625,605,618,649,604,597,670
75.8813,640,561,630,600,607,625,584,605,603,619,667,624,622
75.9418,598,592,631,633,603,631,619,618,590,612,595,648,576
76.0023,607,546,587,592,619,597,601,634,628,623,569,575,588
76.0628,601,609,604,591,556,625,643,612,647,580,664,623,590
76.1233,601,621,580,607,583,571,581,628,572,643,585,609,635
76.1838,589,568,678,623,638,616,640,592,581,600,615,638,573
76.2443,604,642,588,550,627,622,586,617,621,632,582,579,568
76.3048,587,586,576,594,632,609,632,609,565,604,542,658,619
76.3653,574,628,550,575,643,592,616,613,625,595,577,613,618
76.4258,608,588,592,609,570,621,586,631,607,630,587,566,606
76.4864,600,592,596,582,626,562,603,596,540,606,606,608,618
76.5469,621,571,624,583,602,633,573,606,641,579,610,596,559
76.6074,630,582,609,570,591,656,614,636,623,651,573,595,635
76.6679,580,562,541,597,604,619,590,611,589,596,562,605,619
76.7284,564,638,573,589,564,610,590,579,610,640,587,604,619
76.7889,560,601,558,614,577,613,595,607,601,608,618,620,620
76.8494,612,571,557,581,634,587,620,621,620,616,580,608,562
76.9099,630,636,579,608,622,542,611,607,594,582,591,577,591
76.9704,569,589,569,619,621,614,622,628,634,599,574,618,606
77.0309,598,556,604,591,631,564,586,515,601,609,592,622,571
77.0914,588,621,570,601,592,608,574,640,615,617,593,580,614
77.1519,578,591,613,564,608,595,603,627,606,620,613,574,572
77.2124,564,592,586,586,598,626,592,606,581,627,582,617,634
77.2729,603,584,603,571,612,567,576,598,594,568,605,569,593
77.3334,623,572,598,605,578,585,580,611,635,597,584,587,614
77.3939,583,610,584,566,636,607,620,609,603,550,598,628,603
77.4544,604,592,579,567,613,620,607,595,588,631,562,616,608
77.5149,596,552,639,580,575,577,561,634,605,619,588,590,618
77.5755,613,588,626,592,618,595,604,585,611,623,587,620,661
77.636,580,605,626,559,593,590,597,574,644,623,590,607,618
77.6965,586,563,559,569,622,605,544,579,552,634,585,578,581
77.757,632,600,582,601,586,567,588,599,587,565,590,618,606
77.8175,546,554,589,621,590,592,587,641,589,560,631,605,623
77.878,596,582,593,584,596,587,572,591,592,605,632,642,606
77.9385,556,576,526,601,597,596,568,647,605,623,641,642,599
77.999,590,563,619,605,576,586,601,620,548,594,577,602,586